timestamp,AccX,AccY,AccZ,CompassSensor
1558048548839,0.257999986410141,4.864999771118164,8.64799976348877,157.8053736028916
1558048548903,0.20999999344348907,4.864999771118164,8.475000381469727,157.13210819602511
1558048548906,,,,157.0617026060606
1558048548947,-0.07599999755620956,5.343999862670898,8.140000343322754,153.5328853713735
1558048548983,,,,153.15255311763053
1558048549015,0.621999979019165,5.343999862670898,7.901000022888184,156.18284850517674
1558048549042,,,,156.22657537624315
1558048549079,0.02800000086426735,4.864999771118164,8.427000045776367,155.81628591280048
1558048549099,,,,155.65860416562157
1558048549144,0.4779999852180481,5.669000148773193,9.20300006866455,156.46339169514584
1558048549166,,,,156.36164919726932
1558048549210,-0.5360000133514404,5.755000114440918,7.756999969482422,149.21388355160767
1558048549235,,,,148.68372426823126
1558048549276,0.7559999823570251,6.368000030517578,8.005999565124512,151.97327997629282
1558048549298,,,,151.18231674964866
1558048549342,1.9819999933242798,7.690000057220459,6.185999870300293,146.38557051819708
1558048549364,,,,145.37370531341637
1558048549409,,,3.619999885559082,
1558048549410,2.98799991607666,7.382999897003174,,168.65086706141477
1558048549430,,,,149.50609270467913
1558048549474,2.624000072479248,,5.1620001792907715,
1558048549476,,9.001999855041504,,132.30831841236903
1558048549497,,,,130.45490559995105
1558048549540,2.565999984741211,8.39900016784668,4.940999984741211,132.75669301062368
1558048549563,,,,130.95357771125367
1558048549606,1.6369999647140503,8.244999885559082,3.5329999923706055,109.1526315787593
1558048549627,,,,112.44961853263783
1558048549672,3.0450000762939453,,3.437999963760376,
1558048549673,,8.111000061035156,,119.20233286689512
1558048549694,,,,116.93663617579682
1558048549738,3.4189999103546143,9.519000053405762,-10.256999969482422,216.33649209248478
1558048549760,,,,219.98221484500584
1558048549804,2.1540000438690186,9.633999824523926,-0.28700000047683716,359.66320094410787
1558048549825,,,,11.787707809242647
1558048549870,2.2690000534057617,9.366000175476074,-1.0820000171661377,340.43501874514686
1558048549893,,,,352.3826614102209
1558048549936,1.3209999799728394,8.954000473022461,-0.8809999823570251,342.63430209185054
1558048549959,,,,348.4417694713968
1558048550002,2.2880001068115234,9.222000122070312,-1.6080000400543213,342.06737590017195
1558048550023,,,,349.95470589142616
1558048550068,1.7999999523162842,,2.7190001010894775,
1558048550069,,11.26200008392334,,106.4944448971954
1558048550089,,,,107.72732136313937
1558048550134,1.4739999771118164,8.484999656677246,1.0049999952316284,81.27477734924537
1558048550155,,,,82.4704975861045
1558048550200,,,1.2640000581741333,
1558048550201,0.14300000667572021,8.121000289916992,,125.25583390562903
1558048550223,,,,125.34886108212461
1558048550266,1.5509999990463257,12.41100025177002,0.9190000295639038,73.85306647635286
1558048550288,,,,72.63447876615254
1558048550332,1.378999948501587,9.480999946594238,-0.5450000166893005,12.254433418249846
1558048550353,,,,11.533121899440573
1558048550398,0.5360000133514404,7.814000129699707,-0.32499998807907104,359.1752542308341
1558048550421,,,,358.39389702492736
1558048550464,,,0.7749999761581421,
1558048550465,0.257999986410141,7.814000129699707,,109.39916725685092
1558048550485,,,,108.77462158933412
1558048550530,0.8899999856948853,5.572999954223633,0.2290000021457672,55.157575133031514
1558048550557,,,,54.762677500883456
1558048550596,1.090999960899353,5.056000232696533,-0.8140000104904175,345.6022890786933
1558048550617,,,,345.9490483913447
1558048550665,0.382999986410141,8.819999694824219,-1.781000018119812,293.97088106695094
1558048550683,,,,294.9654180818073
1558048550728,1.2350000143051147,13.10099983215332,3.944999933242798,123.2311472695838
1558048550749,,,,123.58411778551175
1558048550794,5.918000221252441,,-0.5550000071525574,
1558048550796,,19.36400032043457,,43.45538129219739
1558048550815,,,,45.66525143211459
1558048550860,1.6660000085830688,11.357999801635742,1.090999960899353,79.43948502869546
1558048550883,,,,80.19835319642971
1558048550934,0.4020000100135803,5.736000061035156,0.9279999732971191,112.26635089682804
1558048550952,,,,112.85472388250042
1558048550992,0.14300000667572021,,-0.0860000029206276,
1558048550993,,3.993000030517578,,2.5213890915459274
1558048551012,0.2680000066757202,3.4760000705718994,0.0,37.23628573213108
1558048551014,,,,38.12179926745574
1558048551033,0.6320000290870667,3.0829999446868896,-0.11400000005960464,33.71398108281761
1558048551058,0.765999972820282,3.1410000324249268,-0.06700000166893005,43.429385592216306
1558048551089,0.6890000104904175,3.619999885559082,0.05700000002980232,51.394957107960295
1558048551092,0.746999979019165,3.7920000553131104,-0.06700000166893005,39.678102266072756
1558048551094,,,,40.04840780211413
1558048551112,1.0529999732971191,4.3379998207092285,-0.05700000002980232,46.1776146576085
1558048551136,2.0390000343322754,5.429999828338623,0.1340000033378601,68.34964155261508
1558048551153,2.700000047683716,7.479000091552734,-1.0820000171661377,68.36887536531782
1558048551172,3.993000030517578,10.295000076293945,-1.2350000143051147,39.56648331465641
1558048551192,3.5429999828338623,14.824999809265137,3.993000030517578,109.67386380489049
1558048551212,1.034000039100647,19.259000778198242,6.7129998207092285,108.60439278464989
1558048551232,0.1720000058412552,24.37299919128418,6.1479997634887695,134.92745007225878
1558048551252,-0.23899999260902405,23.60700035095215,0.9279999732971191,139.84983080330358
1558048551277,-0.4779999852180481,20.858999252319336,-1.9630000591278076,282.1097521392252
1558048551294,2.4130001068115234,,-1.809999942779541,
1558048551295,,17.315000534057617,,354.6355566192673
1558048551312,2.365000009536743,13.991999626159668,-0.9190000295639038,15.799231588047462
1558048551332,2.2119998931884766,10.994000434875488,0.14300000667572021,49.45320262881734
1558048551344,,,,49.13006637918403
1558048551355,1.6660000085830688,8.130000114440918,1.1679999828338623,88.39144514361595
1558048551372,1.034000039100647,6.453999996185303,1.465000033378601,108.51855096716116
1558048551392,0.5260000228881836,4.797999858856201,1.1579999923706055,116.77052597518212
1558048551410,,,,116.92128191054263
1558048551419,0.0860000029206276,3.552999973297119,0.6320000290870667,126.23410824007163
1558048551438,0.24899999797344208,3.178999900817871,0.24899999797344208,86.65299124511847
1558048551452,0.257999986410141,,-0.06700000166893005,
1558048551453,,2.8440001010894775,,20.773045351089763
1558048551472,0.15299999713897705,2.757999897003174,0.20100000500679016,92.7614070047793
1558048551481,,,,92.41131199849195
1558048551501,0.20100000500679016,2.556999921798706,-0.1340000033378601,358.0190549626166
1558048551513,0.008999999612569809,2.825000047683716,0.11400000005960464,120.38974759372348
1558048551534,-0.23899999260902405,3.447000026702881,0.7080000042915344,149.2579246113759
1558048551546,,,,150.13192927794907
1558048551552,-0.0860000029206276,4.423999786376953,0.6320000290870667,138.53249221808323
1558048551584,0.02800000086426735,6.656000137329102,0.41100001335144043,123.40139656483555
1558048551592,-0.24899999797344208,8.130000114440918,0.5260000228881836,151.1474144829899
1558048551607,,,,151.8064867567611
1558048551612,-0.45899999141693115,10.592000007629395,1.2059999704360962,149.6107858442771
1558048551638,-1.0049999952316284,12.182000160217285,2.5850000381469727,153.12318330419947
1558048551652,0.45899999141693115,13.781000137329102,4.519999980926514,136.1791095584203
1558048551672,1.9819999933242798,15.802000045776367,5.0279998779296875,
1558048551673,,,,125.33010538266376
1558048551692,4.2129998207092285,17.381999969482422,3.2170000076293945,99.48505888411819
1558048551712,4.913000106811523,,2.259999990463257,
1558048551713,,19.04800033569336,,85.64626234259362
1558048551732,4.300000190734863,21.336999893188477,0.257999986410141,52.82875041852935
1558048551739,,,,54.43175483559634
1558048551752,2.115999937057495,18.090999603271484,-1.5889999866485596,357.9771637048896
1558048551772,1.8960000276565552,15.47599983215332,-1.312000036239624,0.9118019729446587
1558048551792,,,0.5929999947547913,
1558048551794,1.7519999742507935,13.015000343322754,,66.23998053310572
1558048551812,,,,67.48698866044248
1558048551813,0.5929999947547913,11.223999977111816,1.225000023841858,110.95007099092902
1558048551832,-0.2680000066757202,8.552000045776367,2.1640000343322754,145.69529794029725
1558048551852,-0.3919999897480011,6.828000068664551,2.9110000133514404,150.53481481633145
1558048551871,,,,151.06521998651795
1558048551872,0.14300000667572021,5.209000110626221,2.3269999027252197,144.37995377031453
1558048551892,0.8140000104904175,3.7060000896453857,0.9860000014305115,115.863299268486
1558048551912,1.1970000267028809,3.2269999980926514,-0.05700000002980232,69.23606350309933
1558048551936,0.8899999856948853,3.1600000858306885,-0.5839999914169312,9.011320435223467
1558048551938,,,,8.788669928659374
1558048551957,0.2290000021457672,3.3610000610351562,-0.6600000262260437,311.50743274209367
1558048551972,0.20100000500679016,2.9679999351501465,-0.23899999260902405,344.6106719697071
1558048551992,0.2680000066757202,2.680999994277954,0.1340000033378601,73.62355845986207
1558048552004,,,,73.93972791654198
1558048552025,0.746999979019165,3.265000104904175,0.0,55.2552912343923
1558048552032,0.6600000262260437,4.3379998207092285,0.14300000667572021,62.56947102408674
1558048552052,0.7179999947547913,5.947000026702881,0.41100001335144043,79.86218494586001
1558048552070,,,,79.2969389807173
1558048552078,1.2920000553131104,6.693999767303467,1.312000036239624,106.10014490659972
1558048552100,1.5219999551773071,7.296999931335449,1.225000023841858,99.7290059205144
1558048552119,2.940000057220459,9.711000442504883,1.1490000486373901,88.73643799859332
1558048552132,3.3519999980926514,12.0,2.384000062942505,102.88017516580226
1558048552140,,,,100.95324219715826
1558048552160,2.7669999599456787,14.710000038146973,3.2750000953674316,109.18241803372973
1558048552179,-0.7369999885559082,18.819000244140625,3.936000108718872,145.9051076912217
1558048552192,-1.5800000429153442,22.572999954223633,3.619999885559082,155.203563302737
1558048552202,,,,154.07540729714765
1558048552212,,,0.28700000047683716,
1558048552224,1.312000036239624,21.606000900268555,,50.897811543937166
1558048552246,5.63100004196167,18.042999267578125,-2.3550000190734863,24.127658610995695
1558048552252,3.8399999141693115,16.166000366210938,-1.2730000019073486,25.78918579641862
1558048553011,,,,24.79669100812407
1558048553012,2.25,15.102999687194824,-0.6700000166893005,358.0306169787776
1558048553013,,,-0.6510000228881836,22.34155731284818
1558048553034,1.465000033378601,5.448999881744385,0.5740000009536743,
1558048553035,,,,79.12648477979042
1558048553055,1.465000033378601,6.550000190734863,0.8610000014305115,85.94916074171618
1558048553075,2.2019999027252197,9.097999572753906,0.45899999141693115,84.72838054079227
1558048553093,2.7290000915527344,11.204999923706055,2.1640000343322754,96.13856671913544
1558048553114,3.3320000171661377,13.847999572753906,2.490000009536743,93.89103833122937
1558048553126,,,,91.38416083034878
1558048553132,2.441999912261963,19.823999404907227,2.1640000343322754,86.38679828259558
1558048553152,2.700000047683716,22.208999633789062,2.805999994277954,91.65271703832451
1558048553181,2.8440001010894775,21.558000564575195,3.5329999923706055,98.87571721769382
1558048553193,1.8669999837875366,20.292999267578125,2.1640000343322754,98.15138931659232
1558048553212,2.0869998931884766,16.242000579833984,-0.5929999947547913,20.08321161284408
1558048553240,3.5910000801086426,13.350000381469727,-0.45899999141693115,37.55804911374122
1558048553252,3.3320000171661377,12.324999809265137,-0.4779999852180481,36.464358242703724
1558048553258,,,,34.858444165050344
1558048553273,2.365000009536743,10.77400016784668,0.05700000002980232,43.99826521799753
1558048553294,1.2350000143051147,8.149999618530273,0.7559999823570251,75.12331773743512
1558048553312,0.746999979019165,6.377999782562256,0.5450000166893005,77.53500289185331
1558048553324,,,,75.76963121783677
1558048553332,0.5550000071525574,4.710999965667725,0.11400000005960464,47.67534878409265
1558048553352,0.1340000033378601,2.825000047683716,-0.32499998807907104,315.8202976368903
1558048553372,0.01899999938905239,1.819000005722046,-0.3630000054836273,289.05243452486803
1558048553397,0.11400000005960464,1.187000036239624,-0.41100001335144043,287.7998734537361
1558048553419,0.02800000086426735,1.7230000495910645,-0.5360000133514404,279.34461835563724
1558048553432,0.10499999672174454,2.0969998836517334,-0.24899999797344208,314.55921248967417
1558048553454,-0.008999999612569809,3.3320000171661377,0.2770000100135803,124.59005438609287
1558048553456,,,,123.65110828089121
1558048553472,0.1809999942779541,4.7779998779296875,0.257999986410141,86.60955124199722
1558048553493,0.6600000262260437,6.204999923706055,0.2290000021457672,52.56455870143327
1558048553512,0.9380000233650208,8.52299976348877,0.8040000200271606,77.5889750466747
1558048553527,,,,76.37037367609605
1558048553538,1.1100000143051147,10.170000076293945,2.193000078201294,104.81290013486245
1558048553561,1.1579999923706055,12.699000358581543,3.6679999828338623,116.12262789089306
1558048553580,2.5369999408721924,13.895999908447266,4.175000190734863,107.10447641272592
1558048553588,,,,106.03521029816042
1558048553592,3.936000108718872,15.696000099182129,4.434000015258789,98.75657139781214
1558048553613,4.625,18.798999786376953,2.98799991607666,77.91214544725386
1558048553637,4.394999980926514,19.527000427246094,-0.5070000290870667,25.184953111493428
1558048553653,4.107999801635742,,-1.378999948501587,
1558048553654,,18.83799934387207,,8.796069584851466
1558048553675,3.1600000858306885,,-1.7710000276565552,
1558048553676,,16.031999588012695,,353.4254285252409
1558048553692,2.2119998931884766,14.508999824523926,-1.406999945640564,349.81106530563346
1558048553713,1.1579999923706055,12.737000465393066,-1.1100000143051147,337.3418736644055
1558048553723,,,,336.7376443945749
1558048553732,1.3980000019073486,10.60099983215332,0.6890000104904175,58.9938123520717
1558048553760,1.2730000019073486,9.288999557495117,2.125999927520752,100.62490817356661
1558048553783,1.1009999513626099,7.210999965667725,2.6519999504089355,
1558048553784,,,,114.60031532868061
1558048553786,,,,114.3416833855689
1558048553792,-0.008999999612569809,6.091000080108643,1.5700000524520874,127.04595818519766
1558048553812,0.3059999942779541,5.315000057220459,0.5450000166893005,92.46827577616989
1558048553845,,,0.11400000005960464,
1558048553846,0.37299999594688416,4.567999839782715,,45.07673501246961
1558048553851,,,,44.97179598606152
1558048553852,0.28700000047683716,3.888000011444092,-0.12399999797344208,0.6181188330338045
1558048553873,0.37299999594688416,3.5239999294281006,0.45899999141693115,85.9114649276869
1558048553896,0.5170000195503235,3.5910000801086426,0.746999979019165,95.76715469244846
1558048553920,0.01899999938905239,3.6010000705718994,0.5550000071525574,120.38717944259557
1558048553945,0.20999999344348907,3.9070000648498535,0.45899999141693115,96.81616929612488
1558048553952,1.0429999828338623,4.758999824523926,1.0429999828338623,88.75405988665193
1558048553991,1.3880000114440918,5.171000003814697,1.3209999799728394,91.45926559046222
1558048553992,1.6660000085830688,5.8420000076293945,1.5219999551773071,89.720702408938
1558048554014,3.0739998817443848,6.426000118255615,-0.7179999947547913,20.860488847938825
1558048554036,3.0829999446868896,8.878000259399414,-1.934000015258789,339.9801127784984
1558048554059,4.107999801635742,11.855999946594238,-0.4779999852180481,337.9948192584912
1558048554080,2.6619999408721924,15.074000358581543,3.4760000705718994,91.81074029496187
1558048554092,1.6080000400543213,18.56999969482422,4.261000156402588,104.71013310861042
1558048554126,-0.2199999988079071,22.150999069213867,5.142000198364258,124.50066087023575
1558048554148,-1.378999948501587,21.13599967956543,3.6389999389648438,137.74447963316052
1558048554152,0.6990000009536743,16.691999435424805,0.6700000166893005,66.9081028075272
1558048554172,3.5239999294281006,14.107000350952148,-2.8440001010894775,329.79313664087636
1558048554194,3.0260000228881836,12.41100025177002,-1.5889999866485596,327.778449401776
1558048554217,,,-0.28700000047683716,
1558048554218,1.9249999523162842,11.454000473022461,,12.289991383068923
1558048554241,0.4300000071525574,10.180000305175781,1.1970000267028809,96.36898315078582
1558048554248,,,,94.64315827206366
1558048554264,0.11400000005960464,8.916000366210938,1.7230000495910645,
1558048554265,,,,113.60494503074545
1558048554289,0.02800000086426735,6.568999767303467,1.465000033378601,117.40103439784434
1558048554292,0.257999986410141,5.478000164031982,0.4880000054836273,85.07028615026479
1558048554312,,,0.29600000381469727,
1558048554313,0.1340000033378601,4.826000213623047,,86.46656806191214
1558048554314,,,,84.20574812588126
1558048554336,0.14300000667572021,4.625,0.20100000500679016,
1558048554337,,,,72.13747322100738
1558048554362,0.0860000029206276,4.710999965667725,0.06700000166893005,53.480507559699504
1558048554372,0.19099999964237213,4.826000213623047,0.01899999938905239,20.977913460149693
1558048554386,,,,18.842077448193606
1558048554438,-0.20999999344348907,3.4760000705718994,0.8140000104904175,127.80454631517597
1558048554458,,,,126.16833351836439
1558048554507,1.49399995803833,6.8470001220703125,0.6700000166893005,45.91901003525345
1558048554512,,,,44.044983711920395
1558048554579,1.8480000495910645,13.71399974822998,5.285999774932861,103.89436946509
1558048554649,3.562000036239624,19.30699920654297,-0.1809999942779541,5.432543354965503
1558048554702,1.4839999675750732,12.383000373840332,0.1720000058412552,13.881700374796026
1558048554719,,,,12.629235780086105
1558048554769,1.340000033378601,7.604000091552734,0.8330000042915344,45.79196851669121
1558048554777,,,,44.5092863113195
1558048554844,0.9190000295639038,6.110000133514404,0.14300000667572021,14.677217630069265
1558048554916,0.5170000195503235,4.078999996185303,-0.0860000029206276,351.7410129490224
1558048554968,1.8960000276565552,6.78000020980835,1.090999960899353,45.93704173466233
1558048554993,,,,44.9192923219116
1558048555046,4.48199987411499,11.232999801635742,-1.225000023841858,334.5660198989152
1558048555098,,,5.420000076293945,
1558048555099,-3.3989999294281006,18.02400016784668,,134.04986638656052
1558048555124,,,,132.75120153853098
1558048555175,3.5910000801086426,14.489999771118164,-0.8999999761581421,338.8357948377855
1558048555230,1.1200000047683716,10.581999778747559,2.441999912261963,77.16032603474304
1558048555238,,,,75.1154630198896
1558048555299,1.350000023841858,4.635000228881836,-0.2290000021457672,340.53394208244345
1558048555323,,,,338.4760897553359
1558048555375,-0.6029999852180481,5.7170000076293945,0.01899999938905239,173.28678965866922
1558048555376,,,,171.96085869547298
1558048555430,-0.03799999877810478,7.756999969482422,0.4399999976158142,90.9900862359957
1558048555437,,,,89.69056078413075
1558048555505,1.1490000486373901,11.92300033569336,1.2730000019073486,45.373834580986795
1558048555578,2.6429998874664307,10.371999740600586,3.677000045776367,68.10160323290609
1558048555628,,,0.4300000071525574,
1558048555629,2.6429998874664307,12.928999900817871,,357.80953549473185
1558048555655,,,,356.33326886625247
1558048555692,-0.640999972820282,9.940999984741211,2.2309999465942383,105.47577682400134
1558048555705,,,,104.36307753650374
1558048555781,,,1.1579999923706055,
1558048555782,0.9480000138282776,6.464000225067139,,47.02866647347582
1558048555833,1.9529999494552612,6.359000205993652,0.6029999852180481,4.966617731864858
1558048555890,0.8899999856948853,5.401000022888184,1.7230000495910645,66.09341833389556
1558048555897,,,,63.96567097346406
1558048555962,1.3209999799728394,5.190000057220459,-0.1340000033378601,331.53522761510686
1558048555964,,,,329.70321720045314
1558048556022,2.2690000534057617,7.814000129699707,-0.29600000381469727,326.20361951503537
1558048556037,,,,324.7652636381007
1558048556112,2.2980000972747803,11.376999855041504,3.178999900817871,48.680554554432604
1558048556163,2.700000047683716,19.708999633789062,3.1500000953674316,34.31049565398064
1558048556220,2.365000009536743,14.279000282287598,0.04699999839067459,335.2453949099943
1558048556228,,,,333.221881358939
1558048556296,1.3980000019073486,7.144000053405762,0.5170000195503235,355.1174345760613
1558048556352,0.6510000228881836,4.040999889373779,-0.1340000033378601,317.20373196270884
1558048556374,,,,315.6284307929154
1558048556427,0.28700000047683716,3.696000099182129,0.20100000500679016,8.473271429582041
1558048556484,0.6990000009536743,6.291999816894531,2.671999931335449,68.14495444356811
1558048556491,,,,68.11044149769202
1558048556567,2.1740000247955322,9.097999572753906,2.499000072479248,30.926970203318092
1558048556620,5.36299991607666,26.260000228881836,6.664999961853027,32.48866563628485
1558048556647,,,,31.81893143721925
1558048556682,4.107999801635742,10.1899995803833,-1.2350000143051147,295.49098747806147
1558048556702,,,,296.26411025059355
1558048556758,1.1100000143051147,7.125,2.000999927520752,44.995110836793344
1558048556815,0.5929999947547913,5.256999969482422,0.4300000071525574,9.723201170336267
1558048556822,,,,10.19480438818448
1558048556893,0.9959999918937683,4.414999961853027,-0.04699999839067459,323.713626241783
1558048556948,1.1200000047683716,7.058000087738037,4.328000068664551,80.0146211077564
1558048556977,,,,79.4316644620958
1558048557012,7.105999946594238,17.61199951171875,1.2640000581741333,334.8582444199123
1558048557034,,,,334.1242056973583
1558048557091,3.303999900817871,15.571999549865723,0.20999999344348907,331.92198195421696
1558048557144,0.28700000047683716,8.437000274658203,0.5929999947547913,38.953477251742356
1558048557152,,,,40.2857807814342
1558048557222,0.9860000014305115,,0.16200000047683716,
1558048557223,,3.0929999351501465,,336.4452149679027
1558048557277,0.45899999141693115,2.9590001106262207,-0.257999986410141,297.1405737852679
1558048557305,,,,298.5379621875608
1558048557342,1.3589999675750732,,1.503000020980835,
1558048557343,,6.177000045776367,,32.6704135550043
1558048557360,,,,33.97633889412157
1558048557413,3.609999895095825,12.402000427246094,3.4860000610351562,31.869485082361052
1558048557416,,,,33.30187478905572
1558048557495,7.114999771118164,23.09000015258789,-0.05700000002980232,328.1623162784145
1558048557550,,,0.6700000166893005,
1558048557551,2.8919999599456787,11.3100004196167,,348.73818602099703
1558048557608,0.9190000295639038,5.822000026702881,2.3459999561309814,69.41144910060689
1558048557636,,,,70.24243723578735
1558048557692,0.4690000116825104,3.609999895095825,0.2290000021457672,7.527186069150446
1558048557749,1.253999948501587,3.1500000953674316,0.29600000381469727,351.0909249353307
1558048557806,2.365000009536743,7.355000019073486,0.05700000002980232,
1558048557807,,,,336.12383407688606
1558048557811,,,,335.2316389090059
1558048557870,4.078999996185303,15.22700023651123,2.739000082015991,20.525883003141814
1558048557896,,,,19.11946338321883
1558048557936,1.0529999732971191,16.011999130249023,-0.257999986410141,324.20578918280665
1558048557953,,,,322.85711027457967
1558048558010,0.8899999856948853,13.906000137329102,0.8610000014305115,24.282162612663228
1558048558070,0.8899999856948853,5.755000114440918,0.32499998807907104,357.48740520389725
1558048558076,,,,357.3228710694335
1558048558134,0.621999979019165,2.6519999504089355,0.9860000014305115,53.63108932523619
1558048558142,,,,53.46001699218942
1558048558200,1.0240000486373901,2.7860000133514404,0.16200000047683716,339.9424084267326
1558048558223,,,,339.84156922137385
1558048558266,0.6990000009536743,5.802999973297119,2.4509999752044678,72.47403079235977
1558048558284,,,,72.69636711022201
1558048558345,8.59000015258789,15.361000061035156,-1.406999945640564,
1558048558407,0.6600000262260437,22.027000427246094,-0.23899999260902405,317.0944728416507
1558048558466,3.246000051498413,7.5269999504089355,0.1340000033378601,328.47698992366617
1558048558471,,,,329.0311197559347
1558048558530,0.6700000166893005,5.046999931335449,-0.4020000100135803,301.09612757891904
1558048558559,,,,302.00100470054065
1558048558596,0.7749999761581421,3.562000036239624,1.0429999828338623,46.53503162668608
1558048558622,,,,46.5871186492966
1558048558683,0.0,5.831999778747559,3.619999885559082,97.66570139490193
1558048558741,5.381999969482422,14.279000282287598,-0.9480000138282776,315.8771862824873
1558048558799,3.7249999046325684,16.577999114990234,2.0490000247955322,9.791280227114726
1558048558829,,,,7.9540771611444825
1558048558861,2.2019999027252197,9.73900032043457,1.6660000085830688,19.22499151344283
1558048558888,,,,18.450547099306334
1558048558926,0.9760000109672546,5.63100004196167,0.1340000033378601,341.7521968209217
1558048558949,,,,341.9453955517847
1558048559009,0.45899999141693115,3.628999948501587,1.312000036239624,65.10180464000393
1558048559067,0.5170000195503235,5.6020002365112305,0.9760000109672546,46.783780286068804
1558048559124,2.690999984741211,10.170000076293945,4.5970001220703125,61.73465115278191
1558048559152,,,,62.131013860506926
1558048559190,6.2820000648498535,21.0310001373291,5.2769999504089355,27.66580759163628
1558048559210,,,,27.350389455765082
1558048559270,2.739000082015991,,-0.37299999594688416,
1558048559271,,12.076000213623047,,322.50287958874986
1558048559330,1.406999945640564,7.296999931335449,2.671999931335449,59.96819347868734
1558048559331,,,,61.7270696428032
1558048559391,1.7430000305175781,3.993000030517578,-0.5839999914169312,300.3788279424735
1558048559396,,,,301.47852937998056
1558048559454,1.7230000495910645,4.4720001220703125,-0.05700000002980232,328.04252159056165
1558048559485,1.7039999961853027,5.36299991607666,0.05700000002980232,329.14397155649624
1558048559515,1.0049999952316284,6.224999904632568,1.312000036239624,43.68069557253773
1558048559546,0.4399999976158142,6.7129998207092285,3.562000036239624,84.90980402552617
1558048559554,1.1390000581741333,7.047999858856201,3.677000045776367,81.45190464499132
1558048559577,1.9149999618530273,7.986999988555908,3.753999948501587,70.2628799919732
1558048559608,4.710999965667725,8.734000205993652,1.5410000085830688,358.98720343489293
1558048559614,5.229000091552734,11.253000259399414,-2.757999897003174,287.64109887628996
1558048559641,6.320000171661377,14.824999809265137,0.05700000002980232,330.46501893443593
1558048559672,,,1.8669999837875366,
1558048559673,6.923999786376953,17.66900062561035,,353.9167445228074
1558048559674,5.09499979019165,20.149999618530273,1.5509999990463257,356.08379065728906
1558048559704,2.078000068664551,15.170000076293945,1.2920000553131104,13.934417482357446
1558048559735,-0.6320000290870667,13.76200008392334,1.5219999551773071,98.1395525987607
1558048559766,2.757999897003174,10.324000358581543,0.6700000166893005,351.22071218993926
1558048559774,2.7190001010894775,9.039999961853027,-0.3919999897480011,321.7019955123363
1558048559798,2.2880001068115234,8.22599983215332,-0.28700000047683716,320.89257711455474
1558048559830,1.9249999523162842,7.2210001945495605,-0.28700000047683716,322.04203989525996
1558048559834,2.0299999713897705,6.933000087738037,-0.16200000047683716,325.9503492704221
1558048559864,1.9249999523162842,6.263000011444092,0.4399999976158142,348.7587465979461
1558048559897,0.20100000500679016,5.5929999351501465,1.1679999828338623,68.15331459511219
1558048559929,0.4300000071525574,5.142000198364258,0.45899999141693115,27.856882133667398
1558048559961,,,0.6890000104904175,
1558048559962,0.8330000042915344,4.913000106811523,0.9760000109672546,22.012355855231874
1558048559974,0.49799999594688416,5.343999862670898,1.5130000114440918,63.725145861842066
1558048559994,0.5550000071525574,5.583000183105469,2.881999969482422,63.60037196608425
1558048560028,1.5509999990463257,,3.303999900817871,
1558048560029,,6.953000068664551,,69.5797313013777
1558048560034,3.8970000743865967,8.96399974822998,3.13100004196167,34.094818770559186
1558048560063,5.775000095367432,12.5649995803833,2.000999927520752,353.7108663995239
1558048560097,6.166999816894531,16.913000106811523,2.3940000534057617,357.930753423253
1558048560130,6.953000068664551,20.22599983215332,-0.7850000262260437,318.28381368182505
1558048560134,3.7060000896453857,15.590999603271484,-0.5929999947547913,319.015750413662
1558048560162,3.0929999351501465,12.670000076293945,1.034000039100647,353.63059673573747
1558048560194,2.7290000915527344,11.347999572753906,1.2829999923706055,2.584258208091569
1558048560227,1.9919999837875366,7.604000091552734,2.183000087738037,38.1365012496442
1558048560258,1.6080000400543213,5.343999862670898,0.9860000014305115,13.044552262757861
1558048560289,1.2640000581741333,4.605999946594238,-0.23899999260902405,316.08625837298143
1558048560320,1.4359999895095825,4.625,-0.621999979019165,297.71786820410654
1558048560352,1.7230000495910645,3.888000011444092,-0.3440000116825104,305.25202789639957
1558048560354,,,0.05700000002980232,
1558048560355,1.4459999799728394,3.8499999046325684,,328.2803009661373
1558048560384,1.0049999952316284,4.461999893188477,1.9630000591278076,64.58706109358428
1558048560387,,,,64.23359197384696
1558048560416,0.33500000834465027,5.650000095367432,3.4860000610351562,92.85879867215453
1558048560447,1.6759999990463257,6.224999904632568,3.2939999103546143,70.89217264096317
1558048560478,3.5910000801086426,10.458000183105469,-0.1340000033378601,68.25969479143515
1558048560509,6.234000205993652,17.200000762939453,3.619999885559082,9.631209621273626
1558048560541,5.611999988555908,20.9060001373291,4.816999912261963,24.06646182357963
1558048560572,3.944999933242798,14.461000442504883,-0.4300000071525574,318.79654915262876
1558048560574,1.819000005722046,12.142999649047852,-1.1100000143051147,295.1910807017954
1558048560603,2.2690000534057617,10.362000465393066,0.1340000033378601,294.1470043248889
1558048560636,2.509000062942505,9.13599967956543,0.8519999980926514,349.24261171290175
1558048560667,,,,332.4623865213484
1558048560668,1.406999945640564,5.918000221252441,-0.24899999797344208,
1558048560695,1.9249999523162842,4.519999980926514,0.32499998807907104,331.25249534950876
1558048560727,0.6510000228881836,2.757999897003174,1.1579999923706055,54.200774913339444
1558048560759,-0.3160000145435333,2.183000087738037,2.068000078201294,109.6045510451932
1558048560791,-0.0949999988079071,2.757999897003174,2.4609999656677246,104.28073277587009
1558048560794,1.1770000457763672,3.687000036239624,1.350000023841858,37.472135579266194
1558048560823,3.878000020980835,6.894999980926514,0.02800000086426735,310.3090145805124
1558048560857,7.61299991607666,13.053000450134277,0.14300000667572021,309.9461607808555
1558048560890,6.0329999923706055,24.54599952697754,9.366000175476074,48.0001174489376
1558048560894,2.8440001010894775,21.558000564575195,5.85099983215332,
1558048560895,,,,48.661559798350766
1558048560924,1.5509999990463257,18.70400047302246,0.4300000071525574,48.2093876149176
1558048560934,3.4760000705718994,13.598999977111816,0.2290000021457672,329.81190941581013
1558048560959,4.251999855041504,7.901000022888184,-0.765999972820282,
1558048560960,,,,296.8547986703946
1558048560994,3.619999885559082,6.4070000648498535,-0.14300000667572021,306.07025723821044
1558048561027,0.11400000005960464,6.166999816894531,0.6890000104904175,58.885881702807126
1558048561061,-0.4779999852180481,5.97599983215332,1.3880000114440918,93.92261429576234
1558048561074,0.5929999947547913,4.89300012588501,0.7850000262260437,33.02741388254253
1558048561095,1.0049999952316284,4.48199987411499,0.7850000262260437,16.882281024358065
1558048561128,,,,17.86116324563676
1558048561129,1.1100000143051147,4.28000020980835,0.5740000009536743,3.7816648613454618
1558048561134,0.4880000054836273,4.2129998207092285,1.503000020980835,64.0299430535539
1558048561163,0.8230000138282776,4.797999858856201,2.3550000190734863,70.58974552489332
1558048561197,2.1740000247955322,6.636000156402588,2.3940000534057617,39.13693271775429
1558048561232,4.5970001220703125,13.982000350952148,1.781000018119812,
1558048561233,,,,355.7521781428958
1558048561268,3.734999895095825,16.44300079345703,6.501999855041504,54.61195913156337
1558048561274,4.328000068664551,18.905000686645508,4.309000015258789,26.796660897110314
1558048561304,4.13700008392334,14.652999877929688,0.8140000104904175,341.3910539836519
1558048561310,,,,339.92069867045575
1558048561341,,,-0.1809999942779541,
1558048561342,4.193999767303467,13.168000221252441,-0.9760000109672546,321.5338499153489
1558048561377,2.068000078201294,10.0649995803833,1.0149999856948853,359.66359696167757
1558048561414,1.0240000486373901,6.693999767303467,1.5130000114440918,36.506292189113026
1558048561417,,,-0.11400000005960464,
1558048561418,1.3020000457763672,5.142000198364258,,320.23448155783484
1558048561450,1.0529999732971191,4.500999927520752,-0.11400000005960464,319.57780668046234
1558048561486,1.090999960899353,4.156000137329102,0.2770000100135803,343.56083774333024
1558048561494,0.8809999823570251,4.442999839782715,1.1490000486373901,34.36980560163846
1558048561521,1.2350000143051147,4.386000156402588,2.0969998836517334,34.95526892672444
1558048561553,0.45899999141693115,5.439000129699707,1.9149999618530273,65.2098445722952
1558048561554,0.29600000381469727,6.2729997634887695,1.4359999895095825,61.06950001064939
1558048561588,,,,61.05066234891848
1558048561589,1.7519999742507935,6.2820000648498535,1.9149999618530273,
1558048561594,1.3980000019073486,7.804999828338623,3.552999973297119,62.694183448141985
1558048561625,3.74399995803833,9.625,3.1500000953674316,23.682526645049506
1558048561634,5.97599983215332,11.817999839782715,0.24899999797344208,319.77575239279844
1558048561640,,,,319.8116177161302
1558048561661,5.918000221252441,16.290000915527344,1.4259999990463257,341.0483321665736
1558048561697,3.8499999046325684,16.864999771118164,9.13599967956543,66.15766309322873
1558048561735,3.3519999980926514,16.711999893188477,-0.746999979019165,39.346165317693874
1558048561773,3.944999933242798,10.840999603271484,-1.090999960899353,303.4025151219977
1558048561775,3.3320000171661377,10.859999656677246,-0.4399999976158142,317.7550648325123
1558048561810,,,0.41100001335144043,
1558048561811,3.13100004196167,10.937000274658203,,337.17597519965506
1558048561845,1.5509999990463257,9.42300033569336,1.3980000019073486,20.607947726019518
1558048561854,2.183000087738037,6.693999767303467,2.0490000247955322,31.127535293200935
1558048561880,2.384000062942505,5.190000057220459,0.621999979019165,345.8066594377175
1558048561914,2.134999990463257,4.75,-0.5360000133514404,304.90323062605455
1558048561949,,,-0.4779999852180481,
1558048561950,1.3880000114440918,3.5139999389648438,,302.84121359110065
1558048561984,1.5800000429153442,3.055000066757202,-0.5170000195503235,297.3226119870271
1558048562020,2.183000087738037,5.0279998779296875,0.1720000058412552,335.39132360915886
1558048562055,1.5700000524520874,6.377999782562256,1.6369999647140503,35.36364935229409
1558048562089,3.9639999866485596,8.244999885559082,1.4259999990463257,0.3144483290503217
1558048562094,5.775000095367432,11.012999534606934,2.259999990463257,3.339536471086774
1558048562125,4.051000118255615,14.230999946594238,2.86299991607666,6.171309849085617
1558048562162,0.37299999594688416,15.112000465393066,2.872999906539917,
1558048562163,,,,72.04760842209754
1558048562168,,,,81.77792323445436
1558048562174,2.546999931335449,17.525999069213867,2.4230000972747803,31.03089494663442
1558048562201,7.039000034332275,17.97599983215332,4.519999980926514,24.76975444958481
1558048562238,9.777999877929688,16.395999908447266,4.48199987411499,16.200436899894044
1558048562275,3.188999891281128,11.272000312805176,-2.441999912261963,292.8552447981102
1558048562311,2.0490000247955322,5.515999794006348,0.32499998807907104,350.01765035349604
1558048562314,3.447000026702881,3.437999963760376,6.185999870300293,110.77479467644815
1558048562345,3.677000045776367,2.98799991607666,6.7129998207092285,
1558048562346,,,,115.68085125537664
1558048562354,3.7149999141693115,3.265000104904175,5.353000164031982,109.70874558098174
1558048562381,3.734999895095825,3.006999969482422,3.437999963760376,108.03274693225484
1558048562394,3.8499999046325684,2.7860000133514404,2.4230000972747803,95.21094506757765
1558048562416,4.7779998779296875,2.881999969482422,2.259999990463257,115.2559725078668
1558048562454,5.256999969482422,3.380000114440918,4.40500020980835,102.62972578931624
1558048562455,,4.318999767303467,,
1558048562490,3.6389999389648438,5.285999774932861,8.303000450134277,101.94513592880588
1558048562494,2.8340001106262207,5.142000198364258,10.418999671936035,108.5069054946263
1558048562498,,,,105.72139042655502
1558048562527,1.684999942779541,4.367000102996826,10.696999549865723,109.53113334180472
1558048562534,-0.4020000100135803,4.5289998054504395,10.659000396728516,111.06614322568424
1558048562565,0.6790000200271606,4.691999912261963,12.086000442504883,110.91834476223431
1558048562604,1.7039999961853027,5.171000003814697,12.555000305175781,107.83769722012678
1558048562641,3.6579999923706055,6.110000133514404,10.256999969482422,98.55725964764201
1558048562679,5.23799991607666,5.229000091552734,12.23900032043457,105.62124619294428
1558048562717,3.7730000019073486,2.7290000915527344,9.614999771118164,112.98858192985435
1558048562755,2.2980000972747803,1.4739999771118164,7.861999988555908,117.13732079399014
1558048562756,,,,118.42013960314526
1558048562761,,,,119.86104997082947
1558048562793,0.32499998807907104,0.20999999344348907,7.335999965667725,120.65384368817121
1558048562794,0.3440000116825104,0.3160000145435333,7.823999881744385,120.33133581594154
1558048562830,1.5889999866485596,,10.956000328063965,
1558048562831,,0.3540000021457672,,122.17696221270569
1558048562868,1.340000033378601,0.6890000104904175,10.888999938964844,122.1939967044957
1558048562908,2.010999917984009,1.2059999704360962,9.001999855041504,124.51687573932537
1558048562983,2.115999937057495,0.7369999885559082,10.77400016784668,127.85446133763043
1558048563026,,,,132.93022079667702
1558048563032,1.4839999675750732,1.6759999990463257,10.074999809265137,127.6015257722865
1558048563107,1.0429999828338623,1.6369999647140503,9.595999717712402,130.3039037777804
1558048563157,,,,131.92163408269792
1558048563189,0.8999999761581421,1.6369999647140503,8.331999778747559,130.80648275728828
1558048563228,,,,132.78285263514482
1558048563230,1.4839999675750732,1.1679999828338623,10.227999687194824,137.57459916812394
1558048563306,0.5070000290870667,1.5130000114440918,8.897000312805176,139.44919922734732
1558048563384,0.04699999839067459,2.1740000247955322,9.050000190734863,135.2662274550914
1558048563423,,,,131.65721013917005
1558048563428,0.6320000290870667,2.193000078201294,9.614999771118164,134.04325476344397
1558048563498,0.6320000290870667,1.6469999551773071,10.715999603271484,134.18690730206768
1558048563570,0.24899999797344208,1.9149999618530273,9.270000457763672,137.83211096021176
1558048563646,0.5170000195503235,2.0299999713897705,9.470999717712402,134.57057268812562
1558048563686,,,,135.11529393481248
1558048563692,0.15299999713897705,1.6950000524520874,9.968999862670898,135.6873086174227
1558048563755,,,,135.57799826994582
1558048563791,,,9.87399959564209,136.21002299460378
1558048563792,0.765999972820282,2.0299999713897705,,
