timestamp,AccX,AccY,AccZ,CompassSensor
1558048925778,-0.4020000100135803,3.7249999046325684,9.088000297546387,259.0624604077436
1558048925816,-0.3160000145435333,3.7149999141693115,9.020999908447266,259.09722607061894
1558048925817,,,,259.6214225988499
1558048925876,-0.4020000100135803,3.7060000896453857,9.298999786376953,258.8370095236198
1558048925877,,,,259.233140004913
1558048925942,-0.14300000667572021,3.944999933242798,9.001999855041504,261.49645979018015
1558048925943,,,,262.37535487219907
1558048926008,-0.28700000047683716,,,
1558048926014,,3.763000011444092,8.972999572753906,261.3841578198468
1558048926077,-0.14300000667572021,3.936000108718872,9.001999855041504,261.96070774806594
1558048926140,-0.257999986410141,3.944999933242798,8.666999816894531,263.30592716547824
1558048926144,,,,263.9839737047638
1558048926206,-0.2199999988079071,3.878000020980835,9.020999908447266,
1558048926207,,,,262.2745754309955
1558048926272,-0.257999986410141,3.878000020980835,8.857999801635742,262.4390463862094
1558048926338,0.01899999938905239,3.9839999675750732,,
1558048926339,,,9.13599967956543,261.55881941730235
1558048926404,-0.04699999839067459,3.993000030517578,9.020999908447266,261.6935244081134
1558048926406,,,,261.63689530970476
1558048926470,0.02800000086426735,3.9839999675750732,9.059000015258789,261.3533673270684
1558048926471,,,,261.24201475302965
1558048926536,-0.23899999260902405,3.8970000743865967,8.628999710083008,262.3938510244715
1558048926543,,,,262.76636271161476
1558048926602,-0.23899999260902405,3.8499999046325684,,
1558048926603,,,9.232000350952148,260.48418477404925
1558048926607,,,,261.1129583286623
1558048926668,-0.3630000054836273,,,
1558048926669,,3.9070000648498535,9.039999961853027,262.303439810428
1558048926734,0.44999998807907104,3.878000020980835,9.625,258.7406697053768
1558048926735,,,,258.598178298912
1558048926800,-0.05700000002980232,4.453000068664551,8.541999816894531,266.5935704205722
1558048926801,,,,265.8276193466686
1558048926866,-0.0860000029206276,,,
1558048926867,,4.6539998054504395,8.8100004196167,266.325717722081
1558048926874,,,,265.193279187882
1558048926932,0.4020000100135803,,,
1558048926933,,4.960000038146973,,
1558048926934,,,8.532999992370605,266.9209413874909
1558048926939,,,,265.33330489605646
1558048927000,0.5550000071525574,,,263.5088247649627
1558048927001,,4.807000160217285,8.27400016784668,
1558048927064,0.5170000195503235,4.7779998779296875,8.762999534606934,261.3030424932637
1558048927065,,,,259.8826363534679
1558048927130,0.20999999344348907,,,
1558048927131,,4.739999771118164,8.39900016784668,261.5756353430389
1558048927196,-0.05700000002980232,,,
1558048927197,,4.367000102996826,8.600000381469727,258.0320922205013
1558048927199,,,,257.39227425000036
1558048927262,-0.0860000029206276,4.461999893188477,8.666999816894531,257.8772791527738
1558048927267,,,,256.51039437531415
1558048927330,,,,255.66323918236833
1558048927331,-0.008999999612569809,4.625,9.194000244140625,254.8509657655137
1558048927394,0.11400000005960464,5.01800012588501,,
1558048927395,,,8.475000381469727,260.1747020725668
1558048927397,,,,259.41673548980293
1558048927460,0.33500000834465027,,,
1558048927462,,5.6020002365112305,8.369999885559082,263.26390784170434
1558048927526,0.3160000145435333,5.4679999351501465,9.088000297546387,258.52364727468876
1558048927527,,,,256.4691810138623
1558048927592,0.10499999672174454,6.091000080108643,6.953000068664551,271.6447138778501
1558048927596,,,,268.9445898347823
1558048927659,0.4399999976158142,5.486999988555908,7.631999969482422,259.8734087678992
1558048927660,,,,256.74014827861504
1558048927724,0.4399999976158142,,,
1558048927726,,6.636000156402588,7.421999931335449,264.7913635363618
1558048927790,1.1770000457763672,8.331999778747559,3.4189999103546143,276.7138139024559
1558048927791,,,,273.0641569609729
1558048927856,1.2640000581741333,,,
1558048927857,,8.704999923706055,6.013999938964844,266.3855911603453
1558048927925,0.6790000200271606,,,
1558048927926,,8.159000396728516,4.40500020980835,272.5781753411482
1558048927988,0.7179999947547913,,,
1558048927989,,7.46999979019165,6.4070000648498535,254.24583832580726
1558048927991,,,,250.6573388981526
1558048928054,0.7269999980926514,7.239999771118164,4.672999858856201,258.50743240559916
1558048928055,,,,256.12710464966057
1558048928126,1.2350000143051147,7.355000019073486,8.513999938964844,238.93099009331877
1558048928186,0.5929999947547913,7.382999897003174,4.261000156402588,258.84683133564624
1558048928188,,,,257.8473902449658
1558048928252,0.4880000054836273,,,
1558048928255,,6.501999855041504,9.107000350952148,233.32046780339516
1558048928318,0.28700000047683716,6.828000068664551,7.296999931335449,240.5879393444505
1558048928319,,,,240.94638767209273
1558048928384,1.1009999513626099,7.767000198364258,7.890999794006348,
1558048928385,,,,240.6672924822277
1558048928389,,,,240.20234784504657
1558048928450,1.3209999799728394,8.111000061035156,4.635000228881836,252.25620422058256
1558048928451,,,,249.35152284206208
1558048928516,1.6660000085830688,,,
1558048928518,,8.168999671936035,3.505000114440918,248.6214712424361
1558048928582,1.781000018119812,8.10200023651123,1.0820000171661377,228.4117884318254
1558048928583,,,,223.36575395604672
1558048928648,2.5179998874664307,8.552000045776367,-2.115999937057495,170.34810076827122
1558048928651,,,,164.47592759162282
1558048929198,2.5850000381469727,,,
1558048929199,,10.027000427246094,-4.797999858856201,152.96457265129345
1558048929244,2.0869998931884766,9.442999839782715,0.14300000667572021,147.99808255858872
1558048929308,1.7999999523162842,9.395000457763672,-0.28700000047683716,137.1622060064169
1558048929309,,,,139.22451332441057
1558048929374,1.9049999713897705,9.42300033569336,-0.3919999897480011,137.63452724790164
1558048929382,,,,139.15849271589323
1558048929440,1.7899999618530273,9.37600040435791,-0.3160000145435333,139.96767888724298
1558048929441,,,,140.75444837773674
1558048929506,1.7430000305175781,9.26099967956543,0.01899999938905239,149.17838022830193
1558048929510,,,,150.0030982498243
1558048929573,1.8669999837875366,9.213000297546387,-0.20999999344348907,144.87637191919106
1558048929638,2.0299999713897705,9.298999786376953,-0.0860000029206276,149.31629540802282
1558048929639,,,,149.59398357891888
1558048929704,1.9049999713897705,9.395000457763672,0.2290000021457672,156.47279003544378
1558048929705,,,,156.97295112798545
1558048929770,2.3459999561309814,,,
1558048929771,,8.906000137329102,0.5170000195503235,162.4269801236457
1558048929775,,,,162.90917781867026
1558048929836,2.7669999599456787,,,
1558048929837,,9.079000473022461,-0.1720000058412552,152.15821417826007
1558048929902,2.624000072479248,10.045999526977539,-0.9760000109672546,139.3347252568579
1558048929968,2.1740000247955322,9.845000267028809,0.1340000033378601,155.80866342168676
1558048929969,,,,156.4569986380827
1558048930034,2.4130001068115234,,,
1558048930035,,8.532999992370605,-0.0860000029206276,154.00797966966127
1558048930100,2.565999984741211,,,
1558048930102,,8.513999938964844,-0.3540000021457672,152.21306059729528
1558048930166,2.384000062942505,8.9350004196167,,
1558048930167,,,-0.5070000290870667,149.49258259050086
1558048930232,2.3359999656677246,8.972999572753906,-0.5839999914169312,149.8214288782803
1558048930233,,,,151.74736463930546
1558048930298,2.3550000190734863,9.307999610900879,-0.765999972820282,148.9816161386922
1558048930299,,,,150.7099818477856
1558048930364,2.499000072479248,9.911999702453613,-0.8999999761581421,149.59157935233102
1558048930366,,,,150.93395741104865
1558048930430,2.259999990463257,12.4399995803833,1.656000018119812,187.83143525186688
1558048930496,0.5450000166893005,9.307999610900879,4.932000160217285,210.30378214958438
1558048930497,,,,211.4600102326625
1558048930562,3.178999900817871,8.52299976348877,0.7559999823570251,175.97251566296663
1558048930628,2.4700000286102295,,,
1558048930630,,10.1899995803833,1.6660000085830688,188.96388061625498
1558048930698,1.034000039100647,7.928999900817871,1.5509999990463257,190.24732780281374
1558048930760,1.1100000143051147,8.64799976348877,0.9860000014305115,197.55382704478654
1558048930761,,,,198.69214637186087
1558048930829,0.6890000104904175,8.878000259399414,0.7080000042915344,203.91149006763953
1558048930892,0.37299999594688416,,,
1558048930894,,9.01200008392334,-0.06700000166893005,156.8762083285814
1558048930905,,,,158.82700597818544
1558048930958,1.2920000553131104,,,
1558048930959,,8.906000137329102,-0.6029999852180481,150.7433268313136
1558048931024,1.684999942779541,10.505999565124512,-0.8809999823570251,150.19116067843143
1558048931025,,,,151.22426777153086
1558048931090,3.380000114440918,,,
1558048931091,,12.680000305175781,-1.9249999523162842,153.50283253902546
1558048931092,,,,154.53585766985486
1558048931157,-1.7710000276565552,10.77400016784668,5.429999828338623,155.22207311538773
1558048931222,4.558000087738037,7.853000164031982,0.4020000100135803,178.854172473795
1558048931228,,,,178.96633784034495
1558048931288,0.621999979019165,10.180000305175781,,
1558048931289,,,1.090999960899353,224.95728365530806
1558048931354,1.5509999990463257,,,
1558048931355,,7.172999858856201,0.621999979019165,191.35956946763702
1558048931420,2.5280001163482666,,,
1558048931422,,7.785999774932861,,
1558048931423,,,-0.16200000047683716,173.79742826139773
1558048931486,2.872999906539917,8.10200023651123,0.0,
1558048931487,,,,175.74986515640254
1558048931552,2.671999931335449,8.925000190734863,-1.2730000019073486,159.43179190843338
1558048931558,,,,159.52921772675444
1558048931618,2.2119998931884766,,,
1558048931619,,11.395999908447266,-0.23899999260902405,170.78168117678365
1558048931684,3.1019999980926514,,,
1558048931686,,14.843999862670898,1.8960000276565552,198.00423703941385
1558048931687,,,,198.64339248156534
1558048931750,0.02800000086426735,,,
1558048931751,,9.87399959564209,5.736000061035156,223.46988702013277
1558048931816,4.816999912261963,7.269000053405762,-0.7080000042915344,173.83716630198884
1558048931817,,,,173.6092019082505
1558048931882,0.5740000009536743,9.682000160217285,2.499000072479248,230.71873946551057
1558048931883,,,,230.69394587882346
1558048931948,1.5889999866485596,,,
1558048931950,,7.355000019073486,0.7749999761581421,195.2469716337498
1558048932014,1.1009999513626099,8.083000183105469,0.8230000138282776,205.52364693819425
1558048932015,,,,205.7128158574469
1558048932081,0.7179999947547913,8.734000205993652,0.11400000005960464,184.75201714381
1558048932146,0.8519999980926514,8.666999816894531,-0.6990000009536743,144.1231523179004
1558048932147,,,,143.15983609774014
1558048932212,1.6660000085830688,10.123000144958496,-0.02800000086426735,175.29239274617342
1558048932215,,,,175.13875447098317
1558048932278,2.2880001068115234,12.019000053405762,-1.49399995803833,
1558048932279,,,,151.78472577406544
1558048932344,2.700000047683716,12.41100025177002,3.371000051498413,210.36565000308633
1558048932345,,,,211.11209405672037
1558048932410,-0.1720000058412552,8.043999671936035,3.5329999923706055,234.10037978396224
1558048932411,,,,234.85029357369461
1558048932476,4.434000015258789,9.336999893188477,-0.3440000116825104,175.29582150113677
1558048932477,,,,175.19070488981026
1558048932542,0.6119999885559082,,,
1558048932543,,9.614999771118164,0.28700000047683716,199.31392581276384
1558048932608,0.8519999980926514,7.690000057220459,1.1579999923706055,218.37840446561677
1558048932611,,,,218.49656673825802
1558048932674,2.240999937057495,,,
1558048932675,,7.890999794006348,0.6029999852180481,187.864138197613
1558048932740,2.815000057220459,,,
1558048932741,,8.149999618530273,-0.4020000100135803,172.27719207669296
1558048932743,,,,171.79678389123094
1558048932806,2.384000062942505,8.897000312805176,-1.062999963760376,160.7416446063234
1558048932807,,,,159.28871310569994
1558048932872,2.4700000286102295,10.371999740600586,-0.1720000058412552,172.14528746344166
1558048932938,3.197999954223633,12.956999778747559,-1.8769999742507935,153.48149502805836
1558048932939,,,,152.71506584091287
1558048933004,-0.2770000100135803,11.09000015258789,6.252999782562256,221.24140119963272
1558048933071,3.8299999237060547,5.861000061035156,0.8709999918937683,
1558048933072,,,,179.8903394916426
1558048933136,2.98799991607666,9.902000427246094,,
1558048933137,,,0.7179999947547913,179.39118926709807
1558048933202,1.7519999742507935,,,
1558048933203,,8.024999618530273,1.5130000114440918,195.84428533704568
1558048933268,0.8999999761581421,,,
1558048933270,,8.159000396728516,0.9480000138282776,202.17488715040713
1558048933334,0.9760000109672546,8.753000259399414,0.0949999988079071,170.14603645186557
1558048933335,,,,171.28006642014114
1558048933400,0.7749999761581421,9.222000122070312,-0.01899999938905239,
1558048933401,,,,165.91222075142812
1558048933466,1.5509999990463257,9.25100040435791,-0.23899999260902405,161.97632424220828
1558048933467,,,,162.42498570840806
1558048933532,1.6080000400543213,,,
1558048933533,,11.357999801635742,-0.4300000071525574,156.94354033341938
1558048933534,,,,158.42640172298584
1558048933598,3.74399995803833,12.468999862670898,,
1558048933599,,,0.257999986410141,174.45259366696368
1558048933664,0.5170000195503235,,,
1558048933665,,8.906000137329102,5.085000038146973,217.80723672646366
1558048933730,5.0279998779296875,6.693999767303467,0.9480000138282776,180.067381637395
1558048933731,,,,180.1687962861913
1558048933796,1.8480000495910645,,,
1558048933798,,10.227999687194824,0.04699999839067459,173.33733305852732
1558048933862,1.8669999837875366,8.704999923706055,0.7559999823570251,187.89920438881177
1558048933863,,,,187.13266591863953
1558048933928,2.7960000038146973,,,
1558048933929,,7.814000129699707,0.2290000021457672,175.59181457900846
1558048933994,2.930000066757202,,,
1558048933995,,7.604000091552734,-0.8999999761581421,162.77992331881694
1558048934002,,,,162.16901753907266
1558048934060,2.078000068664551,,,
1558048934062,,7.785999774932861,-0.6510000228881836,159.72211592929395
1558048934063,,,,158.78273269198542
1558048934126,2.930000066757202,9.940999984741211,-0.8899999856948853,159.73891819465217
1558048934192,3.687000036239624,12.038000106811523,-1.2920000553131104,157.4374996141947
1558048934193,,,,156.59953102568252
1558048934258,2.010999917984009,,,
1558048934259,,13.95300006866455,0.8709999918937683,183.94127368932948
1558048934324,0.45899999141693115,,,
1558048934327,,6.923999786376953,3.390000104904175,213.01549019348454
1558048934390,3.178999900817871,,,
1558048934391,,8.206999778747559,0.3919999897480011,170.92417258324846
1558048934396,,,,169.03148618310288
1558048934456,2.068000078201294,10.074999809265137,,
1558048934457,,,-0.5070000290870667,151.78196637764074
1558048934458,,,,148.98563228992418
1558048934522,1.9249999523162842,,,
1558048934523,,8.503999710083008,0.29600000381469727,165.83452051943004
1558048934524,,,,163.97879910307262
1558048934588,1.1970000267028809,,,
1558048934590,,8.22599983215332,0.29600000381469727,166.48823792489196
1558048934655,1.1770000457763672,8.59000015258789,-1.090999960899353,120.65280549941735
1558048934656,,,,119.46033643260319
1558048934720,0.8330000042915344,8.494000434875488,-0.32499998807907104,132.72998697096892
1558048934721,,,,132.69520764771522
1558048934786,1.5609999895095825,9.26099967956543,-0.41100001335144043,141.8712116277905
1558048934787,,,,142.93650257225906
1558048934852,2.125999927520752,,,
1558048934854,,10.640000343322754,-0.6320000290870667,142.92362083548443
1558048934855,,,,144.2450985153418
1558048934918,3.5429999828338623,11.472999572753906,-1.6369999647140503,142.94859200708999
1558048934924,,,,145.15272137300977
1558048934984,1.3020000457763672,,,
1558048934985,,11.119000434875488,2.7669999599456787,206.43005402219
1558048935051,2.365000009536743,5.775000095367432,0.621999979019165,173.9791932555901
1558048935116,3.246000051498413,,,
1558048935118,,8.532999992370605,0.7559999823570251,174.6822246268595
1558048935182,3.055000066757202,11.836999893188477,1.781000018119812,187.50951477590593
1558048935183,,,,188.9995478641008
1558048935248,2.815000057220459,8.868000030517578,0.3630000054836273,174.01357642787193
1558048935251,,,,175.31739123853566
1558048935314,2.86299991607666,7.699999809265137,0.14300000667572021,172.79117747211475
1558048935315,,,,173.69523497103597
1558048935380,3.0929999351501465,8.991999626159668,-0.41100001335144043,167.16150333175847
1558048935382,,,,167.65330427275606
1558048935446,3.055000066757202,10.343000411987305,1.340000033378601,186.7233736628158
1558048935512,3.677000045776367,8.972999572753906,0.3630000054836273,175.65429714953572
1558048935514,,,,175.51747480008203
1558048935578,2.872999906539917,,,
1558048935579,,8.666999816894531,-0.3919999897480011,167.0729157782234
1558048935646,2.7290000915527344,8.8100004196167,0.5550000071525574,178.23392299526614
1558048935710,2.739000082015991,,,
1558048935711,,9.432999610900879,0.257999986410141,173.57327511321623
1558048935776,2.3269999027252197,9.079000473022461,0.28700000047683716,173.25472875070517
1558048935777,,,,171.17294173319866
1558048935842,2.115999937057495,,,
1558048935843,,9.079000473022461,0.11400000005960464,168.19936423652024
1558048935844,,,,166.29969738304294
1558048935910,2.183000087738037,8.9350004196167,-0.7850000262260437,151.22846150768126
1558048935977,2.9590001106262207,9.79699993133545,0.2290000021457672,167.30944522918094
1558048936040,2.078000068664551,9.854000091552734,0.5740000009536743,172.70065014485542
1558048936041,,,,170.97770760596302
1558048936106,2.3550000190734863,,,
1558048936107,,8.015999794006348,-0.8809999823570251,149.02941380250397
1558048936109,,,,148.06328354440566
1558048936172,2.4700000286102295,,,
1558048936174,,9.911999702453613,-0.6029999852180481,150.60982395379654
1558048936177,,,,149.89007227943893
1558048936238,2.384000062942505,9.720000267028809,0.0860000029206276,160.415612356482
1558048936240,,,,160.2499119672175
1558048936304,2.8340001106262207,8.675999641418457,-0.16200000047683716,158.51848633337596
1558048936305,,,,158.79680288167563
1558048936370,2.2690000534057617,9.42300033569336,-0.41100001335144043,151.98001454281444
1558048936371,,,,151.6795272004689
1558048936436,2.384000062942505,,,
1558048936438,,9.347000122070312,-0.3919999897480011,152.7694068259495
1558048936502,2.3550000190734863,9.097999572753906,-0.2290000021457672,155.25798625004364
1558048936569,,,,155.58494740561216
1558048936570,2.4030001163482666,9.25100040435791,-0.2290000021457672,155.6841763938741
1558048936634,2.4030001163482666,9.317999839782715,-0.1720000058412552,156.55442445640375
1558048936635,,,,157.17899061448807
1558048936700,2.4130001068115234,,,
1558048936702,,9.26099967956543,-0.3160000145435333,154.9757901542954
1558048936766,2.3359999656677246,9.279999732971191,-0.23899999260902405,156.24964775525945
1558048936767,,,,156.44195856153033
1558048936832,2.3550000190734863,9.26099967956543,-0.0949999988079071,158.93648025020238
1558048936833,,,,159.18690230593174
1558048936898,2.3550000190734863,9.307999610900879,-0.06700000166893005,159.63015426230888
1558048936899,,,,159.7891337454301
1558048936964,2.3550000190734863,9.307999610900879,,
1558048936965,,,-0.05700000002980232,159.95777111603772
1558048937030,2.365000009536743,9.232000350952148,-0.1720000058412552,158.87795918939372
1558048937031,,,,159.43940073916878
1558048937096,2.375,9.232000350952148,-0.06700000166893005,161.19148086506044
1558048937097,,,,161.45261265740837
1558048937167,2.3459999561309814,9.25100040435791,-0.12399999797344208,160.41938262090386
1558048937228,2.4030001163482666,9.279999732971191,-0.12399999797344208,160.82677608413843
1558048937230,,,,160.71861320844212
1558048937294,2.431999921798706,,,
1558048937295,,9.270000457763672,-0.0949999988079071,161.27099792737772
1558048937360,2.3940000534057617,9.184000015258789,0.0,163.08715888806245
1558048937372,,,,163.26634207074858
1558048937426,2.3269999027252197,,,
1558048937427,,9.241000175476074,-0.06700000166893005,161.98236212943456
1558048937496,2.365000009536743,9.279999732971191,-0.02800000086426735,162.9669338982919
1558048937561,2.3940000534057617,9.307999610900879,0.02800000086426735,163.54162601505678
1558048937624,2.4130001068115234,9.232000350952148,0.0,
1558048937625,,,,162.91512008324818
1558048937690,2.4130001068115234,,,
1558048937691,,9.173999786376953,0.02800000086426735,162.83567132282258
1558048937756,2.4230000972747803,9.164999961853027,0.20999999344348907,165.94109879123891
1558048937830,2.5950000286102295,9.145999908447266,0.11400000005960464,165.92032135578376
1558048937889,2.8340001106262207,8.9350004196167,0.4880000054836273,169.73582895069296
1558048937955,3.1500000953674316,,,
1558048937956,,8.762999534606934,0.45899999141693115,169.31903714716043
1558048937957,,,,169.0433980330154
1558048938020,3.371000051498413,8.83899974822998,0.257999986410141,166.9956116971972
1558048938086,3.447000026702881,9.644000053405762,-0.7080000042915344,157.9134271955612
1558048938087,,,,158.81920590215327
1558048938153,2.5950000286102295,,,
1558048938154,,10.017000198364258,0.6700000166893005,160.47487107772105
1558048938218,3.0929999351501465,,,
1558048938219,,8.293000221252441,0.14300000667572021,168.47355535056124
1558048938220,,,,168.56536675338455
1558048938284,3.562000036239624,,,
1558048938286,,7.986999988555908,-0.02800000086426735,167.76152178996574
1558048938350,3.2939999103546143,8.244999885559082,,
1558048938351,,,-0.4399999976158142,164.56470639045463
1558048938416,3.5139999389648438,8.819999694824219,-0.8040000200271606,162.87610604270907
1558048938417,,,,164.02773057828657
1558048938483,3.7249999046325684,9.519000053405762,-0.6029999852180481,165.639108807276
1558048938548,3.9070000648498535,,,
1558048938550,,10.696999549865723,-0.5070000290870667,168.174365744158
1558048938551,,,,169.5076596512795
1558048938614,3.821000099182129,12.986000061035156,3.7920000553131104,193.91384165116835
1558048938615,,,,194.84825251076109
1558048938680,1.8380000591278076,8.187999725341797,3.4089999198913574,200.92703890980238
1558048938681,,,,200.27203742877657
1558048938746,3.6480000019073486,7.34499979019165,0.8709999918937683,180.35486429956086
1558048938812,3.246000051498413,10.371999740600586,2.078000068664551,189.64796504276683
1558048938816,,,,189.94233253561606
1558048938881,2.546999931335449,8.168999671936035,1.2920000553131104,187.4527149227681
1558048938944,1.934000015258789,7.948999881744385,1.1200000047683716,189.42353868701855
1558048939010,1.406999945640564,8.819999694824219,0.11400000005960464,175.00402215941548
1558048939076,1.406999945640564,,,
1558048939084,,8.541999816894531,0.11400000005960464,174.20355130944668
1558048939142,1.2640000581741333,8.159000396728516,0.2290000021457672,177.61755306418584
1558048939143,,,,177.04250577758413
1558048939208,2.0490000247955322,10.668000221252441,-0.20999999344348907,166.59242563049133
1558048939274,3.0160000324249268,11.454000473022461,-1.350000023841858,158.23297076569108
1558048939275,,,,158.5740021109498
1558048939340,2.134999990463257,,,
1558048939341,,12.4399995803833,3.619999885559082,206.62864860249726
1558048939342,,,,207.2160038899833
1558048939408,1.7430000305175781,7.326000213623047,3.188999891281128,204.16331914233785
1558048939409,,,,204.7056498228152
1558048939472,6.38700008392334,7.585000038146973,-1.1490000486373901,170.9506054153364
1558048939476,,,,170.4563182854809
1558048939538,2.068000078201294,,,
1558048939539,,10.180000305175781,1.6369999647140503,196.11216535629364
1558048939554,,,,196.1364398486039
1558048939604,1.4359999895095825,8.22599983215332,0.9760000109672546,194.38608093038306
1558048939670,3.380000114440918,7.776000022888184,0.4300000071525574,176.88698237018295
1558048939671,,,,176.99145694372746
1558048939738,3.2269999980926514,7.872000217437744,-0.6320000290870667,175.9226416216472
1558048939802,2.7860000133514404,,,
1558048939803,,8.072999954223633,-0.9480000138282776,161.09939625467032
1558048939804,,,,160.56120466883002
1558048939868,3.188999891281128,,,
1558048939870,,9.86400032043457,-0.29600000381469727,167.5840324941938
1558048939934,4.539000034332275,12.833000183105469,-1.9149999618530273,157.7991581307469
1558048939935,,,,157.533368149385
1558048940000,1.684999942779541,14.01099967956543,5.209000110626221,
1558048940001,,,,209.14416629267794
1558048940074,2.3459999561309814,,,
1558048940075,,4.165999889373779,0.5550000071525574,177.54059049261815
1558048940132,4.691999912261963,8.96399974822998,,
1558048940134,,,-0.4399999976158142,167.04814951229292
1558048940198,2.240999937057495,8.609000205993652,1.5889999866485596,186.61247871145144
1558048940200,,,,185.22171559265348
1558048940264,2.068000078201294,8.130000114440918,0.29600000381469727,168.21555178485318
1558048940265,,,,167.14412733050995
1558048940330,1.781000018119812,8.675999641418457,0.02800000086426735,161.21479913088686
1558048940396,1.465000033378601,,,
1558048940398,,8.475000381469727,-0.3440000116825104,150.4659528491194
1558048940400,,,,151.55640621049025
1558048940465,2.2980000972747803,8.331999778747559,-0.9670000076293945,149.6951523409051
1558048940528,2.4130001068115234,11.347999572753906,-0.4880000054836273,154.76457338440193
1558048940542,,,,155.79959293046898
1558048940594,5.775000095367432,,,
1558048940595,,12.277000427246094,-2.6519999504089355,155.53408981705223
1558048940596,,,,156.76389269786972
1558048940660,-0.5649999976158142,,,
1558048940661,,10.256999969482422,,
1558048940662,,,5.390999794006348,216.08194460249672
1558048940727,6.664999961853027,6.368000030517578,-1.684999942779541,217.7849020078777
1558048940792,1.8960000276565552,10.227999687194824,1.5219999551773071,194.96946104777214
1558048940793,,,,196.78844970677324
1558048940858,1.4359999895095825,,,
1558048940859,,7.498000144958496,0.45899999141693115,183.22765552484657
1558048940924,3.2079999446868896,7.593999862670898,-0.37299999594688416,169.92479296427052
1558048940990,3.390000104904175,7.671000003814697,,
1558048940991,,,-0.8230000138282776,166.7269803571406
1558048941061,2.930000066757202,7.767000198364258,-1.406999945640564,160.61267697441522
1558048941122,3.0160000324249268,9.835000038146973,-0.4300000071525574,168.5138534666643
1558048941127,,,,168.06359373619873
1558048941190,4.558000087738037,11.70300006866455,-2.872999906539917,157.7692692229389
1558048941254,2.680999994277954,14.61400032043457,5.1620001792907715,206.13422486885838
1558048941255,,,,206.17095762621466
1558048941329,2.365000009536743,6.204999923706055,1.781000018119812,191.70128383181282
1558048941389,5.0279998779296875,8.560999870300293,-0.9190000295639038,167.85411183435443
1558048941452,2.7290000915527344,9.336999893188477,1.7519999742507935,187.51731485193807
1558048941453,,,,186.4730335693564
1558048941520,2.700000047683716,7.355000019073486,0.04699999839067459,168.76618797536128
1558048941584,2.125999927520752,8.418000221252441,-0.24899999797344208,161.96405722245893
1558048941597,,,,161.5831375724473
1558048941658,1.2059999704360962,8.637999534606934,-0.8999999761581421,137.44634187588946
1558048941717,1.5609999895095825,,,
1558048941719,,8.159000396728516,-1.2920000553131104,140.97351986517575
1558048941782,2.2119998931884766,9.480999946594238,-0.8330000042915344,154.26151629165216
1558048941783,,,,154.9770878902377
1558048941848,2.7860000133514404,11.175999641418457,-1.9630000591278076,148.28749133410048
1558048941849,,,,149.48353942003976
1558048941914,5.190000057220459,11.760000228881836,3.6679999828338623,188.3026363423278
1558048941980,1.406999945640564,,,
1558048941982,,10.295000076293945,3.552999973297119,209.56328036052827
1558048942053,5.583000183105469,8.475000381469727,-2.700000047683716,164.578380429173
1558048942112,0.5740000009536743,8.944999694824219,,
1558048942113,,,0.9760000109672546,217.27785608465263
1558048942114,,,,217.26016589470225
1558048942178,2.4230000972747803,6.617000102996826,-0.4020000100135803,168.88922700306986
1558048942180,,,,169.5820267509626
1558048942244,3.6480000019073486,,,
1558048942246,,7.355000019073486,0.20999999344348907,176.74990047354078
1558048942316,3.505000114440918,8.10200023651123,0.06700000166893005,175.14191001837972
1558048942379,4.309000015258789,10.16100025177002,-0.24899999797344208,172.99694375105057
1558048942442,4.386000156402588,,,
1558048942443,,11.760000228881836,-0.746999979019165,170.3237579740693
1558048942444,,,,170.70404924667727
1558048942508,3.8399999141693115,14.364999771118164,5.545000076293945,199.3598246839863
1558048942509,,,,199.84808758699387
1558048942574,3.5329999923706055,5.97599983215332,3.505000114440918,192.24858689000587
1558048942640,5.267000198364258,8.503999710083008,0.0,177.09397808316936
1558048942648,,,,177.88614342310743
1558048942706,2.2019999027252197,7.901000022888184,2.7669999599456787,198.63447225450932
1558048942707,,,,198.51620069884132
1558048942772,2.4509999752044678,,,
1558048942774,,7.631999969482422,1.2829999923706055,189.8366421883993
1558048942838,2.441999912261963,8.59000015258789,0.9279999732971191,187.79074098479202
1558048942839,,,,189.1247452315872
1558048942904,1.7710000276565552,8.484999656677246,0.5740000009536743,188.79111781138874
1558048942910,,,,189.47805725697367
1558048942975,2.3940000534057617,8.284000396728516,-0.14300000667572021,189.49498246573694
1558048943036,3.246000051498413,,,
1558048943037,,9.5,0.3919999897480011,182.4034292769444
1558048943054,,,,183.14824774555598
1558048943102,3.5810000896453857,11.491999626159668,-0.8519999980926514,172.80623120904548
1558048943103,,,,173.83345067908036
1558048943168,3.677000045776367,12.0,3.4089999198913574,200.18853153598388
1558048943171,,,,200.98157114013577
1558048943234,0.9380000233650208,,,
1558048943237,,7.823999881744385,,
1558048943238,,,5.315000057220459,207.52990572385875
1558048943300,6.664999961853027,7.326000213623047,1.3209999799728394,185.36448020668502
1558048943301,,,,185.65233169906605
1558048943375,2.815000057220459,,,
1558048943376,,8.991999626159668,1.5410000085830688,196.80702782131573
1558048943438,2.375,8.015999794006348,1.465000033378601,198.5036741319036
1558048943503,4.5289998054504395,7.593999862670898,0.6890000104904175,185.47685047891014
1558048943570,4.309000015258789,8.015999794006348,-0.23899999260902405,181.33664935123682
1558048943590,4.126999855041504,,,
1558048943591,,8.072999954223633,-0.2290000021457672,181.04135295266053
1558048943611,3.9260001182556152,,,
1558048943612,,8.015999794006348,-0.3540000021457672,180.253750179088
1558048943624,3.7149999141693115,8.284000396728516,-0.5360000133514404,178.96982123682164
1558048943632,,,,178.22453831534654
1558048943653,3.6480000019073486,8.388999938964844,-0.765999972820282,176.67797858158056
1558048943673,3.734999895095825,8.465999603271484,-0.5839999914169312,
1558048943674,,,,177.92935119979694
1558048943684,4.078999996185303,8.897000312805176,-0.23899999260902405,180.24496655581538
1558048943696,,,,179.7314283104131
1558048943704,3.9639999866485596,9.050000190734863,-0.1720000058412552,180.08731212939313
1558048943735,3.8399999141693115,9.355999946594238,-0.06700000166893005,180.72705496781316
1558048943744,3.74399995803833,9.54800033569336,0.32499998807907104,183.34678768434992
1558048943764,4.126999855041504,9.826000213623047,-0.7080000042915344,177.03234245609914
1558048943765,,,,176.08464004838154
1558048943799,4.251999855041504,11.147000312805176,-1.2450000047683716,173.12980459078565
1558048943804,3.7060000896453857,12.067000389099121,-0.20999999344348907,178.59439305890274
1558048943824,3.5329999923706055,12.755999565124512,1.9819999933242798,194.10120740048012
1558048943828,,,,193.23333624378165
1558048943844,4.126999855041504,13.215999603271484,2.7960000038146973,194.27115616740844
1558048943865,3.5910000801086426,11.836999893188477,2.308000087738037,193.97517674991502
1558048943886,3.5910000801086426,10.180000305175781,2.2690000534057617,192.84346904595736
1558048943906,3.380000114440918,7.699999809265137,1.7710000276565552,191.41822713222905
1558048943924,2.8440001010894775,,,
1558048943928,,6.501999855041504,1.6369999647140503,189.5475885827243
1558048943946,2.509000062942505,5.888999938964844,1.9149999618530273,191.960899322165
1558048943960,,,,190.5380069935112
1558048943964,2.2690000534057617,5.267000198364258,1.6369999647140503,190.0010585020998
1558048943984,2.5280001163482666,4.96999979019165,1.1490000486373901,185.55326663534424
1558048944005,3.246000051498413,6.348999977111816,0.6320000290870667,180.50029268736876
1558048944024,3.7920000553131104,8.111000061035156,0.3160000145435333,177.96523701369617
1558048944026,,,,175.77168078061155
1558048944044,3.9070000648498535,9.336999893188477,1.0429999828338623,179.9793505169062
1558048944064,3.5239999294281006,10.170000076293945,1.2350000143051147,181.9938911343105
1558048944090,3.063999891281128,11.09000015258789,1.7999999523162842,187.5663419498004
1558048944093,,,,186.13838162078252
1558048944104,4.232999801635742,11.866000175476074,1.7710000276565552,182.07333989473602
1558048944124,3.619999885559082,9.979000091552734,1.5130000114440918,182.04881951561572
1558048944152,2.872999906539917,,,
1558048944153,,8.541999816894531,0.9670000076293945,180.1765007395752
1558048944158,,,,179.09217724561327
1558048944172,2.872999906539917,7.901000022888184,0.9670000076293945,179.1218885685028
1558048944184,2.8340001106262207,7.642000198364258,0.5929999947547913,175.876674448533
1558048944204,2.805999994277954,7.8429999351501465,0.257999986410141,172.57930500406096
1558048944228,2.6519999504089355,8.187999725341797,0.4020000100135803,173.98894676572488
1558048944246,2.4800000190734863,8.619000434875488,0.5070000290870667,173.51348363722195
1558048944264,2.441999912261963,8.878000259399414,0.4300000071525574,172.5119456784663
1558048944284,2.556999921798706,9.164999961853027,0.28700000047683716,170.54165466897106
1558048944292,,,,169.705298005103
1558048944311,2.872999906539917,9.432999610900879,0.1720000058412552,168.44109829162534
1558048944324,3.4189999103546143,9.892999649047852,0.20999999344348907,169.07294543136487
1558048944344,3.390000104904175,10.314000129699707,,
1558048944345,,,1.4359999895095825,179.02018705176133
1558048944357,,,,178.59371003998572
1558048944370,2.115999937057495,9.510000228881836,2.9489998817443848,194.28543126277373
1558048944384,2.8440001010894775,9.184000015258789,0.11400000005960464,167.27999345347985
1558048944404,4.089000225067139,,,
1558048944405,,8.619000434875488,-1.3209999799728394,160.7830355526937
1558048944423,,,,160.16483513091583
1558048944424,3.8589999675750732,8.340999603271484,-0.9480000138282776,161.5821813459635
1558048944444,3.4189999103546143,8.954000473022461,-0.5740000009536743,161.97262227967812
1558048944464,3.0160000324249268,10.142000198364258,0.0860000029206276,166.1303360123833
1558048944484,2.509000062942505,10.486000061035156,,
1558048944485,,,1.4259999990463257,181.82502153727114
1558048944489,,,,182.02574713659942
1558048944504,1.8860000371932983,10.03600025177002,1.1770000457763672,183.65051253636204
1558048944524,2.2790000438690186,8.991999626159668,0.7369999885559082,175.28113659442124
1558048944544,2.805999994277954,,,
1558048944545,,8.446999549865723,0.0949999988079071,167.19176106978162
1558048944563,,,,168.6435997401379
1558048944565,3.2170000076293945,8.10200023651123,,
1558048944566,,,0.0,168.47824086033185
1558048944585,3.055000066757202,8.159000396728516,-0.0949999988079071,167.300005907748
1558048944604,2.940000057220459,8.331999778747559,-0.1720000058412552,166.18321533693754
1558048944622,,,,166.85593432867043
1558048944624,3.1500000953674316,8.600000381469727,-0.16200000047683716,167.25879254629612
1558048944644,2.6619999408721924,9.020999908447266,-0.0860000029206276,166.72796390438108
1558048944664,2.815000057220459,9.020999908447266,0.0,168.03028973380574
1558048944684,2.632999897003174,9.336999893188477,-0.12399999797344208,166.01261087184895
1558048944686,,,,166.9110129741374
1558048944705,2.546999931335449,9.480999946594238,0.1720000058412552,170.53623149877006
1558048944724,2.6619999408721924,9.222000122070312,0.04699999839067459,169.14507222900022
1558048944744,2.7960000038146973,8.9350004196167,0.01899999938905239,169.12847486931707
1558048944753,,,,169.89001364101682
1558048944764,2.8440001010894775,8.954000473022461,-0.02800000086426735,169.41386749359688
1558048944784,2.8340001106262207,8.982999801635742,-0.1340000033378601,168.19028008492413
1558048944804,2.757999897003174,,,
1558048944805,,9.173999786376953,-0.12399999797344208,168.04823947094454
1558048944819,,,,168.07609298237986
1558048944824,2.7960000038146973,9.232000350952148,-0.16200000047683716,167.68182714273004
1558048944844,2.9210000038146973,9.279999732971191,-0.1340000033378601,168.24653352292836
1558048944864,2.815000057220459,9.20300006866455,0.02800000086426735,169.9620584763821
1558048944893,3.0450000762939453,9.01200008392334,,
1558048944894,,,-0.24899999797344208,167.42751187917378
1558048944914,3.1019999980926514,9.020999908447266,-0.32499998807907104,166.51023113401942
1558048944924,3.1019999980926514,9.020999908447266,-0.23899999260902405,167.36669587480398
1558048944951,3.13100004196167,9.050000190734863,-0.41100001335144043,165.73523688965474
1558048944952,,,,166.01956400442404
1558048944972,3.1410000324249268,8.991999626159668,-0.4020000100135803,166.16973254351595
1558048944984,3.2839999198913574,9.050000190734863,-0.41100001335144043,166.4536088658
1558048945004,3.246000051498413,9.039999961853027,-0.5170000195503235,
1558048945017,,,,165.7109897181012
1558048945037,3.2750000953674316,9.079000473022461,-0.4020000100135803,166.8195704015293
1558048945044,3.2269999980926514,9.050000190734863,-0.4020000100135803,166.70646246887387
1558048945064,3.2750000953674316,8.96399974822998,-0.3630000054836273,167.23965435624174
1558048945082,,,,166.41702637260542
1558048945084,3.1700000762939453,9.13599967956543,-0.3160000145435333,166.49734939724476
1558048945108,3.0739998817443848,9.145999908447266,-0.257999986410141,166.83390013840798
1558048945124,3.1019999980926514,9.184000015258789,-0.20100000500679016,167.46495497620379
1558048945144,3.121999979019165,9.088000297546387,-0.16200000047683716,167.95239825651092
1558048945154,,,,167.64340049845956
1558048945175,3.1019999980926514,9.184000015258789,-0.20999999344348907,167.06313494733195
1558048945184,3.2079999446868896,9.050000190734863,-0.3919999897480011,165.61923295679125
1558048945204,3.2839999198913574,8.906000137329102,-0.3630000054836273,166.1818356387252
1558048945220,,,,166.49460366119843
1558048945224,3.2750000953674316,8.954000473022461,-0.32499998807907104,166.79160760706725
1558048945244,3.303999900817871,8.9350004196167,-0.2770000100135803,167.309568172586
1558048945265,3.303999900817871,9.050000190734863,-0.2770000100135803,167.2475227341656
1558048945284,3.312999963760376,9.145999908447266,-0.4300000071525574,167.617104270155
1558048945304,3.2079999446868896,9.097999572753906,-0.4020000100135803,
1558048945305,,,,166.19871986635346
1558048945325,3.0739998817443848,9.126999855041504,,
1558048945326,,,-0.3160000145435333,166.64273680391767
1558048945346,3.0450000762939453,9.126999855041504,-0.1720000058412552,168.0390460363217
1558048945347,,,,168.8224823945005
1558048945367,3.1500000953674316,9.050000190734863,-0.24899999797344208,168.32464356627662
1558048945387,3.2079999446868896,9.020999908447266,-0.257999986410141,168.38168930622456
1558048945408,3.1700000762939453,9.059000015258789,-0.4020000100135803,166.9315172020258
1558048945412,,,,167.39323798991865
1558048945428,3.1019999980926514,9.020999908447266,-0.257999986410141,168.62205732349565
1558048945449,3.13100004196167,9.107000350952148,-0.20999999344348907,169.11261517006432
1558048945471,3.1700000762939453,9.126999855041504,-0.29600000381469727,168.35756507807608
1558048945494,3.13100004196167,9.097999572753906,-0.3160000145435333,169.11354407579142
1558048945504,3.0450000762939453,9.069000244140625,-0.1720000058412552,170.10636671316615
1558048945538,3.0929999351501465,9.050000190734863,-0.20999999344348907,169.82317340979907
1558048945558,3.1019999980926514,9.069000244140625,-0.14300000667572021,170.4967939865024
1558048945564,3.1019999980926514,9.107000350952148,-0.23899999260902405,169.39378673743707
1558048945584,3.0739998817443848,9.097999572753906,-0.16200000047683716,170.11411214768495
1558048945604,3.1410000324249268,9.050000190734863,-0.14300000667572021,170.43612824629437
1558048945612,,,,171.42071367553004
1558048945625,3.13100004196167,9.001999855041504,-0.24899999797344208,170.3906801675571
1558048945647,3.121999979019165,9.097999572753906,-0.2770000100135803,170.0603722192953
1558048945669,3.13100004196167,9.126999855041504,-0.1720000058412552,171.0924821047759
1558048945676,,,,171.25965781490115
1558048945691,3.1500000953674316,9.107000350952148,,
1558048945692,,,-0.0949999988079071,172.04910473954956
1558048945713,3.2750000953674316,9.050000190734863,-0.1340000033378601,171.86131551850923
1558048945724,3.2079999446868896,9.020999908447266,-0.3160000145435333,170.0688826350011
1558048945742,,,,170.32254220039704
1558048945754,3.2170000076293945,9.001999855041504,-0.2770000100135803,
1558048945755,,,,170.7120815491412
1558048945775,3.13100004196167,9.039999961853027,-0.24899999797344208,170.7989752157621
1558048945784,3.265000104904175,8.991999626159668,-0.1720000058412552,171.7715531724369
1558048945804,3.236999988555908,9.088000297546387,-0.1809999942779541,171.61186334964202
1558048945818,,,,171.97902699866523
1558048945838,3.1700000762939453,,,
1558048945839,,9.097999572753906,-0.20999999344348907,171.5969735372514
1558048945844,3.197999954223633,9.050000190734863,-0.20999999344348907,171.66050795691083
1558048945864,3.188999891281128,8.991999626159668,-0.3160000145435333,170.67437890492275
1558048945881,,,,170.2709879325418
1558048945884,3.1700000762939453,9.020999908447266,-0.29600000381469727,170.40875284810096
1558048945904,3.1500000953674316,9.020999908447266,-0.24899999797344208,
1558048945905,,,,170.8202307644592
1558048945924,3.1700000762939453,,,
1558048945925,,9.050000190734863,-0.20100000500679016,171.3079335919548
1558048945941,,,,171.4318605442555
1558048945944,3.197999954223633,9.050000190734863,-0.3440000116825104,170.14415131965467
1558048945964,3.178999900817871,9.020999908447266,-0.32499998807907104,170.29154680194353
1558048945984,3.13100004196167,9.050000190734863,-0.28700000047683716,170.53773414038747
1558048946004,3.1700000762939453,9.039999961853027,-0.23899999260902405,171.07480557520392
1558048946010,,,,171.07195055613084
1558048946024,3.1500000953674316,9.079000473022461,-0.37299999594688416,169.75186623486414
1558048946044,3.1019999980926514,9.050000190734863,-0.3440000116825104,169.92624096437456
1558048946064,3.13100004196167,9.079000473022461,-0.29600000381469727,170.43824560493707
1558048946072,,,,170.29466136820506
1558048946084,3.0829999446868896,9.107000350952148,-0.3540000021457672,169.61640992324445
1558048946105,3.1019999980926514,9.107000350952148,-0.29600000381469727,170.2207177402505
1558048946126,3.1700000762939453,9.088000297546387,-0.2290000021457672,171.0033344757289
1558048946147,3.121999979019165,9.050000190734863,-0.3630000054836273,170.2212641553841
1558048946168,3.1019999980926514,9.069000244140625,-0.32499998807907104,169.18058921268428
1558048946190,3.1410000324249268,9.069000244140625,-0.3160000145435333,169.35671247062223
1558048946212,3.1500000953674316,9.050000190734863,-0.32499998807907104,169.30271299504412
1558048946232,3.063999891281128,9.059000015258789,-0.3919999897480011,168.09055932304193
1558048946244,3.0929999351501465,9.059000015258789,-0.3540000021457672,168.52704939214078
1558048946272,3.121999979019165,9.050000190734863,-0.3540000021457672,168.60570585062266
1558048946293,3.13100004196167,9.050000190734863,-0.3440000116825104,167.9623566723208
1558048946304,3.0829999446868896,9.069000244140625,-0.41100001335144043,167.20140529688967
1558048946324,3.1019999980926514,9.059000015258789,-0.3540000021457672,167.78896549005086
1558048946339,,,,166.92379908826368
1558048946355,3.1019999980926514,9.050000190734863,-0.3540000021457672,166.9290993150596
1558048946364,3.0929999351501465,9.069000244140625,-0.3160000145435333,167.24999526264514
1558048946384,3.0929999351501465,9.079000473022461,-0.24899999797344208,167.87946549655354
1558048946417,3.0929999351501465,9.107000350952148,-0.3630000054836273,168.33824930310328
1558048946424,3.1500000953674316,9.097999572753906,-0.4399999976158142,166.69150435459156
1558048946444,3.0739998817443848,9.079000473022461,-0.3919999897480011,166.92375810712866
1558048946464,3.0829999446868896,9.088000297546387,-0.3440000116825104,167.39979497152189
1558048946484,3.0829999446868896,9.039999961853027,-0.4399999976158142,167.18189827662013
1558048946506,3.13100004196167,9.050000190734863,-0.3540000021457672,
1558048946507,,,,167.2399412241869
1558048946530,3.055000066757202,9.050000190734863,-0.4399999976158142,166.2116972257765
1558048946536,,,,166.19903405505528
1558048946552,3.13100004196167,9.050000190734863,-0.3630000054836273,167.1422968398124
1558048946575,3.13100004196167,9.020999908447266,-0.3440000116825104,167.33460764608327
1558048946584,3.13100004196167,9.050000190734863,-0.3919999897480011,166.8750042168331
1558048946601,,,,167.6065174769415
1558048946604,3.13100004196167,9.050000190734863,-0.3440000116825104,168.0456576594383
1558048946643,3.1019999980926514,9.039999961853027,-0.3919999897480011,167.53131709417963
1558048946644,3.121999979019165,9.059000015258789,-0.41100001335144043,167.40296417929676
1558048946667,3.0739998817443848,9.050000190734863,-0.3919999897480011,167.44622659749962
1558048946690,3.1500000953674316,9.050000190734863,,
1558048946691,,,-0.4300000071525574,167.5264266787339
1558048946714,3.055000066757202,9.088000297546387,-0.3630000054836273,167.86323696708558
1558048946736,3.063999891281128,9.01200008392334,-0.3540000021457672,168.01437539303961
1558048946744,3.0739998817443848,9.059000015258789,-0.23899999260902405,169.32985616680574
1558048946783,3.0739998817443848,9.050000190734863,-0.41100001335144043,167.6820183880268
1558048946785,3.055000066757202,9.020999908447266,-0.4020000100135803,167.72892812724643
1558048946805,3.055000066757202,9.069000244140625,-0.3919999897480011,167.77107039442544
1558048946828,2.98799991607666,9.079000473022461,-0.29600000381469727,168.61407966254507
1558048946851,2.98799991607666,9.050000190734863,-0.4399999976158142,167.18222612570028
1558048946873,2.98799991607666,9.050000190734863,-0.41100001335144043,167.4704874294315
1558048946884,2.9590001106262207,9.107000350952148,-0.37299999594688416,168.04213328182655
1558048946904,2.940000057220459,9.079000473022461,-0.4020000100135803,
1558048946905,,,,167.7032466159672
1558048946938,2.9010000228881836,9.050000190734863,-0.24899999797344208,169.21699412096044
1558048946944,2.8440001010894775,9.097999572753906,-0.32499998807907104,168.1732455931341
1558048947003,,,,168.35618537986375
1558048947010,2.815000057220459,9.088000297546387,-0.37299999594688416,167.75551122349614
1558048947067,,,,167.75551122349614
1558048947076,2.757999897003174,9.13599967956543,-0.4399999976158142,166.80491281557045
1558048947136,,,,166.99111743272334
1558048947159,2.700000047683716,9.088000297546387,-0.4690000116825104,166.47508298055052
1558048947205,,,,166.91278882332162
1558048947208,2.614000082015991,9.107000350952148,-0.06700000166893005,171.48881066155508
1558048947261,,,,171.77664849355773
1558048947274,2.5950000286102295,9.107000350952148,-0.3919999897480011,167.72814948568106
1558048947326,,,,168.95852610238882
1558048947340,2.5850000381469727,9.270000457763672,0.0,173.75075074860985
1558048947405,,,,174.1942076106621
1558048947406,2.690999984741211,9.107000350952148,-0.02800000086426735,173.9893975582101
1558048947474,3.1700000762939453,8.532999992370605,0.20999999344348907,174.04391612816514
1558048947525,,,,177.191909335489
1558048947542,4.040999889373779,,,
1558048947543,,8.64799976348877,0.16200000047683716,176.74875300176024
1558048947590,,,,177.08054993126112
1558048947607,3.7060000896453857,10.256999969482422,1.0049999952316284,183.24967605473068
1558048947656,,,,183.06558879622048
1558048947673,3.628999948501587,9.470999717712402,-0.3160000145435333,173.23336391898138
1558048947738,3.4189999103546143,8.388999938964844,0.7369999885559082,173.52330544924843
1558048947789,,,,182.3241034599239
1558048947807,3.7920000553131104,7.901000022888184,0.5740000009536743,180.6411311880545
1558048947874,4.01200008392334,8.331999778747559,,180.4951973662479
1558048947875,,,0.24899999797344208,
1558048947924,,,,178.81935216940627
1558048947942,3.821000099182129,8.541999816894531,-0.1720000058412552,176.16723069582534
1558048947988,,,,177.26891288819172
1558048948000,3.6480000019073486,7.374000072479248,0.32499998807907104,180.4151202284187
1558048948056,,,,181.29906965042346
1558048948078,3.9639999866485596,10.324000358581543,0.45899999141693115,182.11671159596563
1558048948122,,,,183.04642328540945
1558048948145,5.553999900817871,12.670000076293945,0.9190000295639038,184.00185746726743
1558048948191,,,,185.9033138303073
1558048948198,3.6480000019073486,11.529999732971191,4.089000225067139,200.89818819074821
1558048948258,,,,203.25611975639845
1558048948264,1.350000023841858,6.24399995803833,,
1558048948325,,,,206.2835874456282
1558048948330,1.9249999523162842,8.062999725341797,3.13100004196167,209.98664280604237
1558048948394,,,,213.00648800415843
1558048948416,1.809999942779541,9.682000160217285,4.375999927520752,214.91765689619803
1558048948460,,,,217.9691122097929
1558048948462,1.7519999742507935,8.072999954223633,2.996999979019165,217.61925626012658
1558048948525,,,,220.15544210273566
1558048948528,-1.312000036239624,9.270000457763672,2.4030001163482666,269.645783885165
1558048948581,,,,275.0346255553866
1558048948594,1.1100000143051147,8.331999778747559,1.5130000114440918,231.7093491215942
1558048948656,,,,232.78756278397242
1558048948660,1.3980000019073486,8.10200023651123,1.1579999923706055,222.74870100604943
1558048948724,,,,222.44109660658876
1558048948746,1.1770000457763672,8.791000366210938,0.6700000166893005,219.33833291194867
1558048948792,2.134999990463257,9.767999649047852,,218.45829035814927
1558048948793,,,0.11400000005960464,
1558048948845,,,,194.72621069067134
1558048948863,3.7249999046325684,11.866000175476074,-0.04699999839067459,190.8457616571336
1558048948911,,,,189.2341512017124
1558048948936,0.3540000021457672,14.565999984741211,6.7129998207092285,232.79243953903983
1558048948985,,,,231.1625514973997
1558048948990,2.86299991607666,5.074999809265137,2.7290000915527344,204.6335913270716
1558048949058,2.2690000534057617,8.27400016784668,1.2450000047683716,202.93419928043738
1558048949109,,,,201.47794830787734
1558048949129,0.746999979019165,9.854000091552734,3.447000026702881,227.84056605115893
1558048949176,,,,225.90120213822547
1558048949200,2.614000082015991,7.249000072479248,1.406999945640564,197.5001007767753
1558048949248,,,,196.06528293783072
1558048949254,2.7860000133514404,7.8429999351501465,0.7850000262260437,189.7668786362167
1558048949319,,,,187.90557012511817
1558048949320,2.5850000381469727,7.718999862670898,-0.02800000086426735,178.96460297229575
1558048949390,2.556999921798706,8.255000114440918,-0.41100001335144043,177.98720290206694
1558048949439,,,,172.27217871784217
1558048949462,2.7290000915527344,,,
1558048949463,,10.793000221252441,0.5260000228881836,183.73258408942888
1558048949511,,,,182.35352791486832
1558048949518,3.2839999198913574,14.508999824523926,0.5260000228881836,181.3286853506646
1558048949570,,,,180.8874141491467
1558048949584,0.7179999947547913,11.012999534606934,6.7129998207092285,210.3200106790523
1558048949656,3.753999948501587,3.619999885559082,-0.41100001335144043,210.46435989697136
1558048949705,,,,174.55742341034502
1558048949730,1.972000002861023,10.123000144958496,2.7960000038146973,204.8376363983366
1558048949775,,,,204.14386676358163
1558048949798,1.9529999494552612,7.9679999351501465,1.5219999551773071,195.64045883183417
1558048949843,,,,195.2069194044568
1558048949848,1.2059999704360962,7.853000164031982,1.2350000143051147,202.21816322898826
1558048949902,,,,201.41718694502083
1558048949914,0.32499998807907104,,,
1558048949915,,8.380000114440918,0.4020000100135803,213.49416351089735
1558048949986,0.9089999794960022,,,213.18049390345368
1558048949987,,8.407999992370605,0.06700000166893005,
1558048950036,,,,173.42519661201035
1558048950060,1.8289999961853027,9.67199993133545,0.5740000009536743,183.3662673838628
1558048950108,,,,182.207839979872
1558048950112,2.9489998817443848,12.699000358581543,-0.9959999918937683,158.77001487975085
1558048950164,,,,158.3918546261639
1558048950181,0.8999999761581421,13.234999656677246,2.9779999256134033,218.42915277114997
1558048950231,,,,218.37791269199653
1558048950254,0.3919999897480011,7.355000019073486,3.8970000743865967,212.55323665083637
1558048950301,,,,212.25542674264545
1558048950324,4.510000228881836,8.418000221252441,-0.04699999839067459,172.27335351037942
1558048950371,,,,171.78851936233522
1558048950395,0.257999986410141,10.1899995803833,2.183000087738037,225.84482575681625
1558048950429,,,,225.3212780965564
1558048950445,1.944000005722046,6.291999816894531,0.6029999852180481,180.19144519347913
1558048950496,,,,178.9383340647479
1558048950522,3.371000051498413,8.072999954223633,-0.0860000029206276,169.07396995974037
1558048950571,,,,167.80005771726294
1558048950574,3.2170000076293945,8.753000259399414,-0.12399999797344208,166.79903885288422
1558048950644,2.1740000247955322,7.690000057220459,-0.3440000116825104,165.72168579434143
1558048950694,,,,158.8681920188806
1558048950720,2.3940000534057617,10.467000007629395,0.3440000116825104,168.48145104924177
1558048950769,,,,167.13920959430754
1558048950772,3.74399995803833,14.355999946594238,-1.8480000495910645,147.15817419635223
1558048950824,,,,146.02089305803176
1558048950844,0.8899999856948853,11.463000297546387,5.861000061035156,205.49815667221173
1558048950893,,,,205.16253483677565
1558048950904,3.609999895095825,4.702000141143799,-0.20100000500679016,165.6905811128612
1558048950972,2.125999927520752,10.803000450134277,2.125999927520752,165.25077157182574
1558048951024,,,,188.50713220607793
1558048951050,2.0490000247955322,7.46999979019165,1.6180000305175781,183.99310116475158
1558048951099,,,,184.2025284250825
1558048951102,1.2059999704360962,8.130000114440918,1.1970000267028809,189.40675008203868
1558048951154,,,,190.49079672596804
1558048951175,0.9570000171661377,8.71500015258789,0.06700000166893005,159.41988005852087
1558048951226,,,,160.2386148343303
1558048951234,1.034000039100647,8.39900016784668,-0.16200000047683716,150.34911563317715
1558048951305,1.6950000524520874,9.079000473022461,0.41100001335144043,151.28606732314114
1558048951355,,,,171.3575617464641
1558048951381,2.680999994277954,12.104999542236328,-0.4880000054836273,155.15890752594345
1558048951431,,,,156.68643835268176
1558048951432,2.2980000972747803,14.048999786376953,3.878000020980835,201.91693822621232
1558048951508,0.3160000145435333,8.206999778747559,4.021999835968018,203.14385876720007
1558048951559,,,,214.08788453468986
1558048951564,4.4720001220703125,6.636000156402588,0.1340000033378601,170.71294215297664
1558048951635,0.3160000145435333,,,171.20645064126674
1558048951636,,10.994000434875488,3.111999988555908,
1558048951686,,,,221.71574417711173
1558048951712,2.556999921798706,7.507999897003174,0.5170000195503235,174.9863183090868
1558048951749,,,,174.61853994303831
1558048951763,3.0450000762939453,7.756999969482422,0.45899999141693115,173.20952655877804
1558048951816,,,,172.23412090378685
1558048951828,2.4030001163482666,7.5269999504089355,0.1809999942779541,169.04951788251174
1558048951895,2.3269999027252197,7.747000217437744,-0.37299999594688416,168.1472635535314
1558048951947,,,,157.93783829165483
1558048951973,2.739000082015991,10.744999885559082,0.2290000021457672,166.172587562589
1558048952023,,,,165.11269246756476
1558048952026,3.8399999141693115,12.822999954223633,-1.8960000276565552,146.9223960662034
1558048952050,2.499000072479248,14.07800006866455,0.6320000290870667,170.6754170936766
1558048952066,1.8380000591278076,14.91100025177002,3.8499999046325684,204.59786943771246
1558048952081,,,,204.92793149916406
1558048952104,1.378999948501587,13.22599983215332,4.980000019073486,208.50266126545205
1558048952106,0.5740000009536743,10.803000450134277,6.177000045776367,209.94351699162291
1558048952131,0.5450000166893005,,,
1558048952132,,8.407999992370605,5.171000003814697,208.8220272506635
1558048952145,,,,208.79312189009602
1558048952158,1.406999945640564,5.688000202178955,3.7149999141693115,200.77315474780198
1558048952183,2.9590001106262207,3.9070000648498535,0.6890000104904175,172.65640417941208
1558048952186,4.691999912261963,5.572999954223633,-0.5839999914169312,163.2314398040898
1558048952210,4.070000171661377,8.762999534606934,-0.5550000071525574,159.687527851337
1558048952211,,,,158.82520280824454
1558048952236,3.246000051498413,10.083999633789062,0.7080000042915344,169.25027080259676
1558048952262,2.441999912261963,10.744999885559082,2.010999917984009,186.94781367894234
1558048952266,1.819000005722046,9.807000160217285,2.9210000038146973,198.3531914041098
1558048952288,2.068000078201294,8.848999977111816,2.2690000534057617,198.322346269818
1558048952315,2.365000009536743,7.823999881744385,1.4739999771118164,181.59804069077325
1558048952342,2.010999917984009,7.374000072479248,1.1299999952316284,179.9399266650169
1558048952346,1.8380000591278076,7.440999984741211,0.7179999947547913,174.8823901506759
1558048952370,1.6080000400543213,8.015999794006348,0.6890000104904175,175.9991943818647
1558048952398,1.5800000429153442,8.187999725341797,0.7179999947547913,176.89470048394506
1558048952406,1.6180000305175781,8.380000114440918,0.621999979019165,174.3329014319484
1558048952409,,,,174.9552546087416
1558048952427,1.1390000581741333,8.656999588012695,0.5170000195503235,177.30329606047357
1558048952452,0.9760000109672546,8.734000205993652,0.02800000086426735,157.9570721043576
1558048952478,0.6600000262260437,8.762999534606934,-0.1340000033378601,
1558048952479,,,,145.0983257464598
1558048952486,0.8420000076293945,8.571000099182129,-0.1809999942779541,146.6719603500957
1558048952532,1.090999960899353,8.675999641418457,0.24899999797344208,168.70414253694088
1558048952558,1.2730000019073486,,,150.99600284946905
1558048952559,,8.628999710083008,-0.5360000133514404,
1558048952566,1.6660000085830688,8.59000015258789,-0.3440000116825104,152.06290571858173
1558048952590,2.000999927520752,8.83899974822998,-0.04699999839067459,160.63156927765948
1558048952613,2.068000078201294,,,
1558048952614,,9.758999824523926,0.16200000047683716,164.754585649381
1558048952640,2.115999937057495,10.505999565124512,0.257999986410141,167.28809405783548
1558048952646,2.0869998931884766,11.684000015258789,-0.5170000195503235,150.66823573157848
1558048952668,2.4130001068115234,11.894000053405762,-1.1970000267028809,142.51329039090672
1558048952672,,,,143.84740392072865
1558048952696,3.0929999351501465,11.942000389099121,-1.7330000400543213,144.21388455083485
1558048952706,4.586999893188477,12.746999740600586,-2.240999937057495,149.24407298773912
1558048952749,3.7249999046325684,12.928999900817871,2.6519999504089355,189.09131828578916
1558048952776,0.2290000021457672,12.17199993133545,5.372000217437744,223.0095732512089
1558048952786,-1.1490000486373901,9.767999649047852,5.947000026702881,225.2039764277506
1558048952804,,,,226.73239517908104
1558048952806,0.3059999942779541,8.03499984741211,3.9070000648498535,222.10200503505428
1558048952830,4.021999835968018,,,
1558048952831,,5.97599983215332,1.819000005722046,184.37971719253096
1558048952858,6.166999816894531,5.775000095367432,0.6890000104904175,174.5369601635917
1558048952866,6.196000099182129,7.182000160217285,-0.1340000033378601,170.2270288350436
1558048952884,,,,171.29659547793256
1558048952886,3.562000036239624,9.01200008392334,0.5740000009536743,176.3603611247966
1558048952910,2.193000078201294,10.314000129699707,1.1200000047683716,189.09174175751764
1558048952936,1.2829999923706055,10.399999618530273,1.5219999551773071,207.35640525856218
1558048952937,,,,208.28126751369518
1558048952963,0.5450000166893005,9.729999542236328,1.5219999551773071,225.8844818351373
1558048952966,0.6119999885559082,8.878000259399414,1.5130000114440918,223.07511574648436
1558048952990,0.8809999823570251,8.168999671936035,1.0429999828338623,209.00984379246052
1558048953016,,,,209.70385931402546
1558048953017,1.2450000047683716,7.901000022888184,0.8140000104904175,195.93499024922346
1558048953044,1.7039999961853027,7.679999828338623,0.7749999761581421,188.63625010214787
1558048953046,2.5850000381469727,7.814000129699707,0.7850000262260437,182.8208631182589
1558048953071,2.98799991607666,7.986999988555908,0.5170000195503235,178.09192336242157
1558048953086,3.0739998817443848,,,
1558048953098,,8.072999954223633,0.06700000166893005,
1558048953099,,,,172.3763800838199
1558048953126,3.197999954223633,8.27400016784668,-0.0860000029206276,170.57960319999964
1558048953154,3.2269999980926514,8.532999992370605,-0.4399999976158142,169.59988086545303
1558048953180,2.930000066757202,8.494000434875488,-0.5839999914169312,163.480167972905
1558048953186,2.671999931335449,,,
1558048953207,2.5850000381469727,8.293000221252441,-0.7850000262260437,159.8952748851321
1558048953233,2.7100000381469727,8.359999656677246,-1.034000039100647,156.52744520918222
1558048953259,2.815000057220459,8.388999938964844,-0.8809999823570251,158.98273429126172
1558048953266,2.7860000133514404,8.8100004196167,-0.8040000200271606,159.49885070570457
1558048953267,,,,158.28998918488236
1558048953287,2.5759999752044678,9.25100040435791,-0.3919999897480011,162.75757493985267
1558048953312,2.4030001163482666,9.480999946594238,0.16200000047683716,171.50177436059974
1558048953340,3.0450000762939453,9.940999984741211,0.24899999797344208,172.4529738251724
1558048953346,3.312999963760376,10.630000114440918,-1.503000020980835,151.83264638128225
1558048953367,3.13100004196167,11.406000137329102,-2.375,143.15475443699765
1558048953396,2.872999906539917,12.803999900817871,-0.9959999918937683,153.07048156456366
1558048953399,,,,151.81383604030805
1558048953424,2.757999897003174,15.006999969482422,2.375,196.60158939146004
1558048953426,1.8669999837875366,16.1560001373291,4.2129998207092285,214.33452266561903
1558048953451,-1.7330000400543213,,,
1558048953452,,14.61400032043457,5.09499979019165,241.550463262667
1558048953479,-0.7369999885559082,,,
1558048953480,,10.621000289916992,5.046999931335449,229.37770012387028
1558048953486,0.8230000138282776,6.493000030517578,3.063999891281128,213.73882088696723
1558048953507,2.4130001068115234,4.6539998054504395,-0.4399999976158142,160.57879923613197
1558048953536,3.246000051498413,3.8589999675750732,-0.37299999594688416,164.55249401221866
1558048953565,3.9639999866485596,7.163000106811523,0.28700000047683716,167.1924031075636
1558048953566,3.197999954223633,8.800999641418457,1.0529999732971191,175.49389698706713
1558048953594,2.431999921798706,9.604999542236328,1.9529999494552612,189.75275380501319
1558048953596,,,,188.05674953220728
1558048953622,1.6369999647140503,10.170000076293945,1.6950000524520874,194.2095751818515
1558048953626,1.9149999618530273,11.098999977111816,1.781000018119812,191.81619493440905
1558048953650,1.781000018119812,10.208999633789062,1.1009999513626099,183.38443568705497
1558048953662,,,,181.71505549163385
1558048953666,2.010999917984009,9.079000473022461,0.5170000195503235,168.37458590948776
1558048953706,1.972000002861023,,,
1558048953707,1.6080000400543213,8.64799976348877,0.621999979019165,170.8352435202549
1558048953735,0.9670000076293945,,,
1558048953736,,8.762999534606934,1.0529999732971191,194.65520404405993
1558048953765,0.9570000171661377,9.097999572753906,0.9760000109672546,191.7261730411483
1558048953767,1.062999963760376,9.184000015258789,0.8610000014305115,186.2876349145256
1558048953794,1.406999945640564,9.25100040435791,0.28700000047683716,163.5433745434843
1558048953806,1.531999945640564,9.336999893188477,0.06700000166893005,155.6593281656736
1558048953826,1.531999945640564,9.395000457763672,0.2770000100135803,162.08604440103534
1558048953854,1.5219999551773071,9.298999786376953,0.2770000100135803,162.151996707661
1558048953883,,,,161.87223215925727
1558048953884,1.7619999647140503,9.307999610900879,0.0949999988079071,156.41323078588127
1558048953886,2.0869998931884766,10.170000076293945,,
1558048953887,,,0.1340000033378601,157.22931544829274
1558048953913,0.6029999852180481,10.199000358581543,2.690999984741211,214.0028760002799
1558048953940,0.2290000021457672,10.314000129699707,3.390000104904175,218.88801853996978
1558048953946,0.8330000042915344,9.347000122070312,0.4690000116825104,177.519895019433
1558048953969,2.8440001010894775,9.25100040435791,-1.2350000143051147,139.67825645135287
1558048953999,2.86299991607666,9.069000244140625,-1.1490000486373901,140.99716598008231
1558048954006,1.7999999523162842,9.682000160217285,0.1340000033378601,158.55050626020497
1558048954028,1.0149999856948853,10.208999633789062,0.5740000009536743,178.98394606802523
1558048954056,0.7369999885559082,10.380999565124512,0.9279999732971191,198.21195675245235
1558048954058,,,,200.440305969169
1558048954085,0.8420000076293945,9.940999984741211,0.6600000262260437,188.72766535399933
1558048954086,1.090999960899353,9.307999610900879,0.04699999839067459,157.612270494677
1558048954114,1.350000023841858,8.675999641418457,-0.1340000033378601,151.59736002475364
1558048954144,,,,153.4824375941638
1558048954145,1.7039999961853027,8.637999534606934,0.0,
1558048954149,1.684999942779541,8.9350004196167,0.1340000033378601,162.64561447897782
1558048954175,1.503000020980835,8.96399974822998,0.14300000667572021,163.0551936027468
1558048954205,1.5889999866485596,,,
1558048954206,,9.069000244140625,-0.20100000500679016,152.69618719804697
1558048954207,1.7519999742507935,9.079000473022461,-0.2770000100135803,153.4373856663984
1558048954236,1.7710000276565552,9.222000122070312,-0.3160000145435333,152.4997509575174
1558048954246,1.6080000400543213,9.355999946594238,-0.3630000054836273,149.85533393732024
1558048954265,,,,151.07873010069625
1558048954267,1.5800000429153442,9.336999893188477,-0.3440000116825104,151.37022891409404
1558048954295,1.8380000591278076,9.395000457763672,-0.29600000381469727,154.56298718123816
1558048954306,1.944000005722046,9.37600040435791,-0.4020000100135803,152.789473921731
1558048954324,,,,153.86203218747644
1558048954352,1.934000015258789,,,
1558048954353,,9.45199966430664,-0.1720000058412552,159.12678298085729
1558048954381,1.8480000495910645,9.395000457763672,-0.04699999839067459,161.95501405199784
1558048954386,1.9249999523162842,9.347000122070312,-0.4399999976158142,152.8797417018019
1558048954408,1.8480000495910645,9.241000175476074,,154.01250125489182
1558048954409,,,-0.41100001335144043,
1558048954436,1.8380000591278076,9.298999786376953,-0.29600000381469727,156.84577300563984
1558048954446,1.8380000591278076,9.37600040435791,-0.1720000058412552,159.91415352799802
1558048954467,1.8380000591278076,9.42300033569336,-0.37299999594688416,160.56117734807333
1558048954496,1.7899999618530273,9.395000457763672,-0.4690000116825104,152.86027566266736
1558048954525,1.8569999933242798,9.470999717712402,-0.41100001335144043,154.7618276483556
1558048954526,1.8960000276565552,9.519000053405762,-0.3919999897480011,156.07387966715834
1558048954554,1.944000005722046,9.595999717712402,-0.3440000116825104,157.46594052189866
1558048954583,2.078000068664551,9.54800033569336,-0.28700000047683716,159.47034149610892
1558048954586,2.2119998931884766,,,
1558048954587,,9.395000457763672,-0.24899999797344208,160.88879420180217
1558048954588,,,,161.90504438803
1558048954611,2.2790000438690186,9.279999732971191,-0.3160000145435333,160.8939578248147
1558048954639,2.1740000247955322,9.317999839782715,-0.32499998807907104,160.2364291737959
1558048954646,2.068000078201294,9.37600040435791,-0.4020000100135803,158.0572163379683
1558048954653,,,,158.87745375539515
1558048954667,1.9149999618530273,9.347000122070312,-0.3440000116825104,159.2574035185446
1558048954695,1.9819999933242798,9.270000457763672,-0.1809999942779541,163.37363068223112
1558048954723,2.0390000343322754,9.279999732971191,-0.4020000100135803,158.74265314193576
1558048954726,2.0390000343322754,9.42300033569336,-0.41100001335144043,159.2215996669154
1558048954751,2.0969998836517334,9.489999771118164,-0.257999986410141,162.75466527926625
1558048954782,2.0299999713897705,9.470999717712402,-0.29600000381469727,161.641658633256
1558048954784,,,,162.22218373157204
1558048954786,2.125999927520752,9.57699966430664,-0.3919999897480011,160.6403529009321
1558048954810,2.0490000247955322,9.26099967956543,-0.3540000021457672,161.1358694648382
1558048954839,2.059000015258789,9.307999610900879,-0.29600000381469727,162.41307385849555
1558048954868,2.125999927520752,9.279999732971191,-0.23899999260902405,163.91179494731477
1558048954897,2.2880001068115234,9.222000122070312,-0.4020000100135803,161.84898219532255
1558048954927,2.2980000972747803,9.232000350952148,-0.5070000290870667,159.97808409862932
1558048954956,1.934000015258789,9.232000350952148,-0.2770000100135803,162.91583042292186
1558048954966,1.9819999933242798,9.13599967956543,-0.257999986410141,163.6014994533211
1558048954986,2.3269999027252197,9.480999946594238,-0.05700000002980232,164.23762229148107
1558048955016,1.944000005722046,9.385000228881836,-0.3160000145435333,162.66952014107287
1558048955026,1.944000005722046,9.347000122070312,-0.3160000145435333,162.6824701797392
1558048955046,2.1449999809265137,9.42300033569336,-0.1720000058412552,166.58167491273775
1558048955076,2.2309999465942383,9.42300033569336,-0.1340000033378601,166.5473190612126
1558048955108,2.183000087738037,9.42300033569336,-0.12399999797344208,167.62625672364283
1558048955139,2.25,9.336999893188477,-0.2770000100135803,170.63099354331482
1558048955169,2.3269999027252197,9.317999839782715,-0.3160000145435333,164.8876923759262
1558048955200,2.2690000534057617,9.307999610900879,-0.1809999942779541,164.71529840127508
1558048955230,2.240999937057495,9.26099967956543,-0.2290000021457672,166.85354376246093
1558048955231,,,,167.8364216444041
1558048955261,2.2119998931884766,9.222000122070312,-0.3440000116825104,
1558048955262,,,,164.55163340838322
1558048955266,2.2119998931884766,9.279999732971191,-0.20100000500679016,167.0380954738347
1558048955292,2.2119998931884766,9.45199966430664,-0.14300000667572021,168.13140385427863
1558048955323,2.1740000247955322,9.347000122070312,0.0,170.95628813272586
1558048955326,2.1059999465942383,9.347000122070312,-0.04699999839067459,170.28468929201685
1558048955354,2.115999937057495,9.288999557495117,-0.04699999839067459,170.31065767124122
1558048955384,2.1449999809265137,9.317999839782715,0.04699999839067459,172.27496543502355
1558048955386,2.125999927520752,9.307999610900879,0.0,172.60266425102242
1558048955415,2.193000078201294,9.288999557495117,-0.06700000166893005,171.31925804559867
1558048955447,,,,171.72872788634092
1558048955477,2.2980000972747803,9.317999839782715,0.0860000029206276,174.73910644226737
1558048955511,,,,174.80175293733473
1558048955539,2.3269999027252197,9.25100040435791,0.05700000002980232,174.2692577292622
1558048955577,,,,175.4100222640594
1558048955604,2.2690000534057617,9.336999893188477,0.16200000047683716,177.39562655767378
1558048955643,,,,177.6783554081773
1558048955688,2.3269999027252197,9.25100040435791,-0.02800000086426735,174.12925251165527
1558048955719,,,,173.96013702780576
1558048955750,2.2880001068115234,9.307999610900879,0.11400000005960464,176.5866589523775
1558048955782,,,,177.28302405901695
1558048955812,2.2690000534057617,9.25100040435791,0.06700000166893005,176.41274867573063
1558048955842,,,,176.698605752874
1558048955871,2.3940000534057617,9.25100040435791,0.1340000033378601,177.85492945860048
1558048955906,,,,176.98173075434937
1558048955934,2.3550000190734863,9.298999786376953,0.1809999942779541,177.85185587347397
1558048955983,,,,177.80885300245956
1558048956009,2.3459999561309814,9.25100040435791,0.14300000667572021,177.13987695439184
1558048956058,,,,177.41028414363265
1558048956066,2.375,9.270000457763672,0.3440000116825104,180.90700313168634
1558048956107,,,,180.28380301143602
1558048956132,2.2690000534057617,9.355999946594238,0.45899999141693115,182.64643374723516
1558048956179,,,,182.43226633562017
1558048956203,2.4130001068115234,9.317999839782715,0.3160000145435333,179.51373652118644
1558048956237,,,,179.7598965388737
1558048956278,2.3359999656677246,9.288999557495117,0.3630000054836273,180.75895195123712
1558048956304,,,,180.75753127188977
1558048956330,2.4030001163482666,,,
1558048956331,,9.317999839782715,0.4880000054836273,182.66315405032333
1558048956379,,,,182.32847478099268
1558048956404,2.509000062942505,9.145999908447266,0.5929999947547913,183.57678747446096
1558048956435,,,,183.6125093638201
1558048956476,2.7290000915527344,,,
1558048956477,,9.13599967956543,0.7179999947547913,184.52071961775664
1558048956501,,,,184.6898760827412
1558048956528,3.0160000324249268,8.331999778747559,0.8040000200271606,184.58176784855823
1558048956573,,,,184.3476836053236
1558048956598,3.5810000896453857,8.312000274658203,-0.29600000381469727,171.8795657839715
1558048956648,,,,172.38875638659596
1558048956660,3.572000026702881,10.878999710083008,0.1720000058412552,176.80122251496425
1558048956699,,,,177.20327477026788
1558048956748,2.9779999256134033,9.557000160217285,0.8519999980926514,186.05148795416164
1558048956772,,,,186.39563386568193
1558048956795,3.3610000610351562,8.10200023651123,0.11400000005960464,177.22772684749654
1558048956841,,,,178.3616202119887
1558048956864,2.940000057220459,7.928999900817871,0.11400000005960464,178.48562912655945
1558048956898,,,,179.85461760228344
1558048956924,3.063999891281128,7.747000217437744,-0.2290000021457672,175.83526984178437
1558048956963,,,,177.75859647054662
1558048956990,2.98799991607666,8.96399974822998,-0.20100000500679016,177.9242285579194
1558048957035,,,,179.51625003080102
1558048957058,2.6519999504089355,,,
1558048957059,,10.572999954223633,0.5450000166893005,190.3160804869991
1558048957105,,,,192.9634344885394
1558048957128,4.193999767303467,12.53600025177002,-0.9480000138282776,176.21084828386503
1558048957161,,,,177.9773264485271
1558048957198,3.055000066757202,,,
1558048957199,,12.631999969482422,5.085000038146973,219.81031264397495
1558048957226,,,,222.04830608779963
1558048957254,1.9819999933242798,6.071000099182129,3.5910000801086426,217.64765618669549
1558048957295,,,,218.92768827866917
1558048957320,2.365000009536743,9.050000190734863,3.1410000324249268,221.1821834595287
1558048957368,,,,223.0031938545241
1558048957394,1.9249999523162842,9.767999649047852,3.878000020980835,229.17809467556583
1558048957424,,,,230.46020314504727
1558048957471,1.809999942779541,7.631999969482422,2.1540000438690186,224.64836785952673
1558048957497,,,,225.01195248942486
1558048957521,1.1100000143051147,8.418000221252441,2.556999921798706,238.42934001953802
1558048957557,,,,239.94859265700228
1558048957595,1.1200000047683716,8.359999656677246,1.350000023841858,234.2322297557002
1558048957622,,,,234.94896248644466
1558048957650,1.1390000581741333,8.187999725341797,1.1009999513626099,230.65187191353618
1558048957696,,,,230.99936461774973
1558048957721,1.5219999551773071,,,
1558048957722,,8.88700008392334,0.20100000500679016,201.9428792846801
1558048957754,,,,201.78470576388088
1558048957796,2.3940000534057617,9.940999984741211,0.4399999976158142,202.4697737376332
1558048957821,,,,202.94309218673675
1558048957848,3.5329999923706055,12.29699993133545,-0.3160000145435333,190.86895697955504
1558048957886,,,,191.03051827418244
1558048957921,0.44999998807907104,,,
1558048957922,,13.302000045776367,7.1539998054504395,243.06778978678534
1558048957972,,,,242.91662404007462
1558048957980,3.006999969482422,6.061999797821045,2.556999921798706,214.53052177404174
1558048958023,,,,214.0746203073217
1558048958048,2.5759999752044678,9.519000053405762,1.5130000114440918,215.26754016662107
1558048958098,,,,213.97722180975734
1558048958123,1.034000039100647,8.532999992370605,2.240999937057495,240.72562229773962
1558048958151,,,,239.37308091753698
1558048958178,2.499000072479248,6.78000020980835,0.9760000109672546,204.88718259057578
1558048958224,,,,203.31764610044183
1558048958250,2.7769999504089355,7.995999813079834,0.8040000200271606,200.46068725365228
1558048958282,,,,198.91888133154862
1558048958310,2.7860000133514404,7.593999862670898,-0.4880000054836273,181.8179727820476
1558048958356,,,,180.6677142843041
1558048958382,2.25,8.656999588012695,-0.3919999897480011,180.76918357461386
1558048958415,,,,179.1027640388268
1558048958459,2.556999921798706,11.26200008392334,0.1340000033378601,188.37847876287162
1558048958483,,,,186.85224567207558
1558048958508,3.7920000553131104,14.881999969482422,0.1809999942779541,
1558048958509,,,,186.46444119138062
1558048958557,,,,184.85860907599726
1558048958581,-0.12399999797344208,10.916999816894531,6.204999923706055,229.5293166630662
1558048958613,,,,227.45444179699973
1558048958659,5.545000076293945,5.764999866485596,-0.9190000295639038,176.68224061962263
1558048958684,,,,175.15468247212763
1558048958709,2.2119998931884766,10.208999633789062,3.111999988555908,212.73655892815952
1558048958744,,,,212.67807884848588
1558048958786,2.1449999809265137,7.479000091552734,0.7850000262260437,
1558048958787,,,,192.60487687787042
1558048958813,,,,192.4778216989298
1558048958839,1.49399995803833,8.062999725341797,0.6029999852180481,195.4002957202382
1558048958891,,,,194.87480828625417
1558048958904,0.8809999823570251,,,
1558048958905,,8.22599983215332,0.4399999976158142,200.31232188450122
1558048958945,,,,199.9352134800465
1558048958973,1.7710000276565552,8.446999549865723,-0.1809999942779541,174.1149227747766
1558048959026,,,,173.9024355896975
1558048959051,2.7860000133514404,9.826000213623047,-0.7369999885559082,168.362865304872
1558048959077,,,,168.94031681806158
1558048959105,2.5280001163482666,11.932999610900879,-0.6320000290870667,168.60823302061556
1558048959141,,,,170.2018800785196
1558048959168,3.6480000019073486,14.067999839782715,5.783999919891357,213.38031791781157
1558048959216,,,,215.48924810707973
1558048959243,1.8289999961853027,7.0,3.437999963760376,216.06123546893326
1558048959272,,,,216.54425278665826
1558048959323,4.394999980926514,8.159000396728516,0.7179999947547913,187.6623061076391
1558048959349,,,,188.15485836944538
1558048959377,1.5700000524520874,8.331999778747559,2.441999912261963,220.59854379495107
1558048959405,,,,221.49056650055473
1558048959432,2.556999921798706,7.039000034332275,0.7179999947547913,193.98050429746763
1558048959470,,,,195.0317796937593
1558048959508,2.509000062942505,7.488999843597412,1.8669999837875366,207.49671100449257
1558048959560,,,,209.25202864005075
1558048959564,3.1600000858306885,7.8429999351501465,0.0860000029206276,187.57490700701965
1558048959614,,,,188.58028353208874
1558048959641,2.930000066757202,9.20300006866455,0.7179999947547913,197.2433949470095
1558048959669,,,,197.56233746049236
1558048959696,3.1410000324249268,,,
1558048959697,,11.722000122070312,0.7850000262260437,198.5464174557295
1558048959734,,,,198.66571353977292
1558048959775,4.7779998779296875,13.647000312805176,1.1579999923706055,197.15943826173168
1558048959801,,,,198.2625684542021
1558048959828,0.8330000042915344,9.529000282287598,7.125,229.36055634905358
1558048959900,3.5910000801086426,6.750999927520752,1.934000015258789,231.22905021915892
1558048959950,,,,205.9879495375934
1558048959977,0.8709999918937683,10.850000381469727,5.650000095367432,239.35358755764577
1558048960003,,,,240.61513715772548
1558048960029,2.7290000915527344,6.980999946594238,0.8999999761581421,202.29737976298202
1558048960065,,,,201.85119082526182
1558048960108,0.1809999942779541,7.642000198364258,1.503000020980835,261.1836781073286
1558048960141,,,,260.51611590841907
1558048960168,1.49399995803833,7.728000164031982,0.8709999918937683,213.70663703559808
1558048960197,,,,213.59574208423373
1558048960224,1.2350000143051147,7.61299991607666,0.7369999885559082,215.07763358693808
1558048960274,,,,214.39395897177644
1558048960301,1.4459999799728394,8.64799976348877,0.0,188.95759684221866
1558048960329,,,,188.24426554568083
1558048960356,2.499000072479248,11.272000312805176,-0.8140000104904175,173.47767978559273
1558048960406,,,,173.17380466941887
1558048960434,3.7249999046325684,12.918999671936035,-2.375,162.9139043095759
1558048960461,,,,162.3896736303991
1558048960489,-1.378999948501587,,,
1558048960490,,10.888999938964844,7.498000144958496,245.11758419821956
1558048960518,-1.2829999923706055,9.097999572753906,6.482999801635742,244.48625615285692
1558048960545,2.9210000038146973,6.348999977111816,1.1579999923706055,244.32320587699036
1558048960548,5.927999973297119,4.883999824523926,-0.7179999947547913,180.59584703385724
1558048960573,6.942999839782715,7.34499979019165,-1.9819999933242798,174.85810199798735
1558048960601,4.8460001945495605,8.762999534606934,-0.7369999885559082,179.45531108302615
1558048960608,3.0829999446868896,10.324000358581543,1.312000036239624,202.38883599596852
1558048960629,1.350000023841858,11.732000350952148,2.680999994277954,235.94647063358997
1558048960656,0.04699999839067459,10.840999603271484,2.010999917984009,262.47906446455653
1558048960659,,,,262.25589486361554
1558048960684,0.5929999947547913,9.336999893188477,0.8709999918937683,235.796138169958
1558048960688,1.531999945640564,7.795000076293945,0.1809999942779541,190.78437191687362
1558048960711,1.9630000591278076,7.182000160217285,-0.0860000029206276,183.0112614715622
1558048960725,,,,181.62873556090324
1558048960738,2.2690000534057617,6.923999786376953,-0.06700000166893005,182.1901634502999
1558048960766,2.757999897003174,6.923999786376953,-0.2770000100135803,179.17902993109914
1558048960768,2.98799991607666,7.172999858856201,-0.32499998807907104,178.8468368506264
1558048960794,2.8440001010894775,7.172999858856201,-0.257999986410141,179.57832278997807
1558048960823,2.700000047683716,7.488999843597412,-0.5550000071525574,173.80070675219932
1558048960828,2.6519999504089355,7.5269999504089355,-0.8999999761581421,168.57987407518166
1558048960852,2.757999897003174,7.479000091552734,-0.7179999947547913,171.6667097686772
1558048960856,,,,170.12609229948913
1558048960880,2.5179998874664307,7.479000091552734,-0.14300000667572021,178.3664013444077
1558048960909,2.125999927520752,7.593999862670898,-0.6029999852180481,168.64940540093238
1558048960937,2.930000066757202,8.656999588012695,-1.1579999923706055,159.5224421790978
1558048960966,3.0160000324249268,9.480999946594238,-1.2450000047683716,162.613280363447
1558048960969,3.055000066757202,10.803000450134277,-0.7080000042915344,169.27440869112357
1558048960994,3.4860000610351562,11.597000122070312,,
1558048960995,,,-0.9279999732971191,167.9977507125998
1558048961008,3.9070000648498535,12.383000373840332,-2.2880001068115234,155.7714388907102
1558048961048,4.002999782562256,14.375,-3.303999900817871,148.90119749140447
1558048961054,,,,205.32133673497856
1558048961075,2.078000068664551,15.274999618530273,,
1558048961076,,,5.390999794006348,227.47750051563776
1558048961104,1.0049999952316284,14.383999824523926,5.323999881744385,235.35072787380312
1558048961108,-0.33500000834465027,11.031999588012695,5.764999866485596,240.18101033407947
1558048961132,0.6510000228881836,7.565000057220459,4.548999786376953,238.39744303611405
1558048961160,2.565999984741211,4.48199987411499,0.2770000100135803,179.474708820269
1558048961188,4.625,,,
1558048961189,5.918000221252441,4.165999889373779,-1.5509999990463257,164.02027201171293
1558048961218,4.567999839782715,8.628999710083008,-0.41100001335144043,169.87162677177113
1558048961228,3.6480000019073486,9.73900032043457,1.1299999952316284,185.53050844502968
1558048961250,1.9529999494552612,9.652999877929688,1.9630000591278076,207.47984043724261
1558048961253,,,,205.52169350409167
1558048961276,1.6180000305175781,8.829999923706055,1.062999963760376,197.22895592710404
1558048961288,2.0869998931884766,8.236000061035156,0.45899999141693115,180.39479358544872
1558048961332,2.125999927520752,7.785999774932861,0.05700000002980232,171.98951816923037
1558048961360,1.7999999523162842,8.159000396728516,0.4399999976158142,180.34519275169612
1558048961368,1.465000033378601,8.418000221252441,0.01899999938905239,169.57014222180678
1558048961387,,,,168.88907673890813
1558048961388,1.312000036239624,8.581000328063965,-0.06700000166893005,165.5679928776378
1558048961414,1.340000033378601,8.848999977111816,-0.257999986410141,158.80911088256
1558048961441,1.1490000486373901,9.059000015258789,-0.2770000100135803,156.01496245537783
1558048961448,1.1579999923706055,,,
1558048961468,1.2059999704360962,8.71500015258789,-0.7850000262260437,139.07385301169842
1558048961495,1.350000023841858,8.427000045776367,-0.8610000014305115,
1558048961508,1.378999948501587,8.27400016784668,-0.8899999856948853,141.121010970113
1558048961521,,,,140.81464966508125
1558048961548,1.6080000400543213,7.928999900817871,-1.2059999704360962,139.37767348635893
1558048961549,,,,140.49372639673902
1558048961576,1.809999942779541,8.187999725341797,-1.1770000457763672,142.7230318399395
1558048961583,,,,143.7349380258552
1558048961588,1.9049999713897705,8.88700008392334,-0.9480000138282776,148.22265917849873
1558048961631,2.1059999465942383,9.682000160217285,-0.7749999761581421,
1558048961632,,,,152.97836963341686
1558048961660,2.2880001068115234,10.888999938964844,-1.9819999933242798,138.06649573176992
1558048961688,2.930000066757202,10.803000450134277,,
1558048961689,,12.402000427246094,-3.1600000858306885,138.61031539348636
1558048961716,5.056000232696533,13.378999710083008,0.8140000104904175,177.74432137518127
1558048961728,2.2309999465942383,12.727999687194824,5.304999828338623,217.98973938108634
1558048961772,-1.656000018119812,12.640999794006348,6.320000171661377,240.2541616600903
1558048961800,0.5839999914169312,8.868000030517578,3.0450000762939453,240.5907397220102
1558048961808,5.611999988555908,5.908999919891357,0.9760000109672546,181.32748323737064
1558048961829,7.1539998054504395,6.501999855041504,-0.5550000071525574,172.93350495403948
1558048961857,5.353000164031982,7.699999809265137,-1.5219999551773071,173.78651361910403
1558048961868,2.9779999256134033,9.298999786376953,0.0,175.5390718582376
1558048961915,2.000999927520752,10.265999794006348,0.746999979019165,191.38799671496258
1558048961945,1.9249999523162842,10.295000076293945,-0.3160000145435333,168.68922540379356
1558048961948,1.062999963760376,9.998000144958496,0.0,175.85649806972478
1558048961974,0.4690000116825104,9.25100040435791,0.2290000021457672,199.78601482781676
1558048961979,,,,200.4358663462085
1558048962004,1.1299999952316284,8.878000259399414,0.9480000138282776,209.68636036937187
1558048962008,1.9630000591278076,8.753000259399414,0.640999972820282,190.83693705272594
1558048962033,3.0929999351501465,,,
1558048962034,,8.293000221252441,0.257999986410141,180.51992265104332
1558048962063,,,,180.34073946835724
1558048962064,3.13100004196167,7.939000129699707,0.0949999988079071,178.26490473334133
1558048962068,2.9110000133514404,7.699999809265137,-0.32499998807907104,172.66087112312925
1558048962094,2.8440001010894775,7.488999843597412,-0.5360000133514404,169.73326079956502
1558048962124,2.7860000133514404,7.355000019073486,-0.9480000138282776,164.29138954062742
1558048962128,2.7769999504089355,7.258999824523926,-0.8610000014305115,164.72667749643233
1558048962155,2.4130001068115234,7.46999979019165,-0.6890000104904175,164.973015099038
1558048962168,2.2309999465942383,7.4029998779296875,-0.9480000138282776,159.8624763167377
1558048962184,,,,158.9488428926001
1558048962215,2.624000072479248,7.565000057220459,-0.8230000138282776,163.3129376212664
1558048962245,2.7290000915527344,8.59000015258789,-1.0049999952316284,161.0698625166992
1558048962248,3.0450000762939453,9.807000160217285,-0.8610000014305115,162.00909548984598
1558048962275,4.051000118255615,10.888999938964844,-1.6660000085830688,158.67477472196418
1558048962304,4.710999965667725,12.04800033569336,-2.9010000228881836,153.56627133603655
1558048962308,4.145999908447266,14.576000213623047,-2.6519999504089355,150.5874619144539
1558048962309,,,,148.0998113960869
1558048962333,3.1600000858306885,,,
1558048962334,,15.513999938964844,2.125999927520752,195.04534444945102
1558048962364,2.805999994277954,16.51099967956543,4.01200008392334,209.46873688203698
1558048962368,-0.02800000086426735,14.73900032043457,4.788000106811523,233.95048445243714
1558048962395,-0.20999999344348907,11.175999641418457,5.190000057220459,231.34964403914466
1558048962426,0.8330000042915344,6.817999839782715,4.375999927520752,214.9391993128403
1558048962431,1.7330000400543213,5.074999809265137,2.000999927520752,199.69977685935623
1558048962456,,,,196.26502498991852
1558048962457,1.9149999618530273,3.2939999103546143,0.8040000200271606,180.33374535464714
1558048962487,2.2019999027252197,4.13700008392334,-0.28700000047683716,162.24129460086974
1558048962489,3.811000108718872,6.750999927520752,-0.7179999947547913,160.67063795971194
1558048962517,3.6389999389648438,8.723999977111816,-0.2770000100135803,158.24277891733922
1558048962528,3.5810000896453857,10.418999671936035,0.7749999761581421,170.217685136259
1558048962549,3.0160000324249268,11.21399974822998,2.98799991607666,191.61224548579253
1558048962578,1.5989999771118164,11.798999786376953,3.0350000858306885,204.71525306878823
1558048962588,1.6080000400543213,10.055999755859375,2.3550000190734863,198.0272684372951
1558048962610,1.8960000276565552,8.791000366210938,0.8519999980926514,175.71130190834864
1558048962642,2.3269999027252197,8.159000396728516,0.7369999885559082,171.35972008624182
1558048962648,1.7519999742507935,7.776000022888184,1.034000039100647,178.77491495866616
1558048962674,1.2350000143051147,8.015999794006348,0.8999999761581421,182.9443256176961
1558048962705,1.0240000486373901,8.312000274658203,0.8610000014305115,186.2114919656583
1558048962708,1.1390000581741333,8.532999992370605,0.8040000200271606,181.43438935825975
1558048962735,1.3209999799728394,8.541999816894531,0.621999979019165,173.51342899570858
1558048962748,1.4170000553131104,8.666999816894531,0.3440000116825104,164.29693565423347
1558048962768,1.3589999675750732,8.71500015258789,-0.05700000002980232,151.02764028570454
1558048962770,,,,150.72599181120012
1558048962795,1.3020000457763672,8.675999641418457,-0.16200000047683716,146.68358533206307
1558048962824,1.8480000495910645,8.878000259399414,-0.1340000033378601,151.0468057965156
1558048962828,2.1540000438690186,9.194000244140625,0.3160000145435333,161.18807943085378
1558048962854,2.0490000247955322,9.395000457763672,1.0149999856948853,162.26443528177774
1558048962883,1.7430000305175781,9.979000091552734,1.656000018119812,187.92185329609958
1558048962888,1.4739999771118164,10.687999725341797,0.7850000262260437,176.34432384062544
1558048962911,1.781000018119812,11.272000312805176,0.4880000054836273,177.78486537809448
1558048962941,2.5850000381469727,11.156999588012695,-0.02800000086426735,156.9489361828637
1558048962948,4.098999977111816,10.803000450134277,-1.0429999828338623,151.3222263446072
1558048962971,4.797999858856201,10.581999778747559,,
1558048962972,,,-0.8230000138282776,155.4166652048414
1558048963001,4.48199987411499,10.937000274658203,0.8519999980926514,169.78314850126281
1558048963008,3.9639999866485596,11.95199966430664,2.4230000972747803,182.68606250479957
1558048963031,2.624000072479248,11.866000175476074,5.199999809265137,201.28181259567123
1558048963062,0.008999999612569809,9.968999862670898,4.75,203.382450935287
1558048963092,0.6600000262260437,8.39900016784668,3.3610000610351562,214.4227413889389
1558048963122,3.4189999103546143,4.940999984741211,-0.05700000002980232,184.15682079915678
1558048963153,3.562000036239624,5.688000202178955,-0.4880000054836273,164.35067558262313
1558048963183,2.556999921798706,9.317999839782715,1.656000018119812,187.87917827416527
1558048963188,2.0390000343322754,11.156999588012695,2.690999984741211,203.2639198324306
1558048963213,2.2119998931884766,12.746999740600586,3.25600004196167,205.09898675673787
1558048963244,2.700000047683716,12.038000106811523,,
1558048963245,,,2.872999906539917,198.76572116960028
1558048963248,3.0160000324249268,9.37600040435791,1.9630000591278076,190.5927577898981
1558048963275,3.7149999141693115,8.675999641418457,0.6890000104904175,176.8473126314835
1558048963305,3.390000104904175,8.140000343322754,-0.20999999344348907,168.38834191047616
1558048963308,2.9010000228881836,,,
1558048963309,,7.5269999504089355,-0.1720000058412552,169.67463045572964
1558048963337,2.757999897003174,7.795000076293945,0.2770000100135803,175.07379937197635
1558048963368,2.8440001010894775,8.236000061035156,0.5929999947547913,178.8217837167508
1558048963369,,8.484999656677246,0.5740000009536743,178.54999682929764
1558048963399,3.390000104904175,8.781999588012695,0.29600000381469727,175.10894752544522
1558048963408,3.6389999389648438,9.222000122070312,0.41100001335144043,176.01159800539742
1558048963431,4.021999835968018,10.515000343322754,0.640999972820282,177.5477075497333
1558048963433,,,,178.12204449666132
1558048963462,3.2079999446868896,11.003999710083008,2.5759999752044678,195.8210763542461
1558048963468,2.2119998931884766,,,
1558048963469,,10.534000396728516,3.4089999198913574,206.3734590747273
1558048963494,2.509000062942505,8.819999694824219,1.1679999828338623,188.02967466233736
1558048963526,3.6480000019073486,,,188.24273558330674
1558048963527,,7.928999900817871,0.5450000166893005,
1558048963529,3.9639999866485596,7.460000038146973,0.1340000033378601,174.69398621261027
1558048963560,3.4189999103546143,7.699999809265137,-0.32499998807907104,170.24773796860705
1558048963592,3.0450000762939453,8.083000183105469,-0.4399999976158142,169.68874162655487
1558048963625,2.6519999504089355,9.317999839782715,0.6029999852180481,179.85950801772918
1558048963628,2.441999912261963,9.614999771118164,1.034000039100647,186.46552036126945
1558048963658,2.384000062942505,9.979000091552734,1.3980000019073486,186.2556286480749
1558048963690,2.5369999408721924,9.777999877929688,1.1490000486373901,187.10462116190752
1558048963723,2.9110000133514404,8.848999977111816,0.6320000290870667,180.56218786162742
1558048963728,2.8919999599456787,8.628999710083008,0.41100001335144043,175.7071491533333
1558048963756,2.7860000133514404,8.571000099182129,0.20999999344348907,173.31277169827194
1558048963761,,,,172.21159493990416
1558048963768,2.7669999599456787,8.791000366210938,0.04699999839067459,170.01981455600375
1558048963788,2.700000047683716,8.944999694824219,0.11400000005960464,170.8159277452821
1558048963821,2.5280001163482666,9.194000244140625,0.1720000058412552,171.52682749447536
1558048963826,,,,170.7581853260388
1558048963828,2.614000082015991,9.37600040435791,0.4300000071525574,174.38758392644348
1558048963854,2.7290000915527344,9.42300033569336,0.3440000116825104,173.04662654707323
1558048963887,2.757999897003174,9.366000175476074,0.3440000116825104,173.03306179138158
1558048963893,,,,172.3837976692585
1558048963952,2.7290000915527344,9.01200008392334,0.3440000116825104,172.4964821301854
1558048963983,,,,172.12487885820167
1558048964016,2.700000047683716,9.173999786376953,0.1809999942779541,169.86414088444081
1558048964048,,,,169.8518192231781
1558048964079,2.7290000915527344,9.25100040435791,0.1809999942779541,169.8324351463136
1558048964109,,,,169.7112129489242
1558048964140,2.680999994277954,,,
1558048964141,,9.145999908447266,0.06700000166893005,168.14488664770022
1558048964172,,,,167.25285028171822
1558048964205,2.7290000915527344,9.184000015258789,-0.01899999938905239,166.1055287653178
1558048964237,,,,166.17014235486613
1558048964271,2.7190001010894775,9.25100040435791,0.16200000047683716,168.63724766420975
1558048964304,,,,168.82696299859603
1558048964336,2.700000047683716,9.25100040435791,-0.0860000029206276,165.37050478797607
1558048964367,,,,164.7786142548811
1558048964399,2.739000082015991,,,
1558048964400,,9.213000297546387,-0.1340000033378601,164.2235384414125
1558048964431,,,,164.14413066212194
1558048964462,2.700000047683716,9.222000122070312,0.0,165.92017109162202
1558048964493,,,,165.12444039293717
1558048964528,2.6429998874664307,9.222000122070312,-0.1720000058412552,162.5531883591292
1558048964556,,,,161.62409138671072
1558048964594,2.5850000381469727,,,
1558048964620,,,,161.37790404826677
1558048964660,2.6429998874664307,9.126999855041504,-0.257999986410141,160.26252049642534
1558048964685,,,,161.07554523408865
1558048964726,2.6429998874664307,9.307999610900879,-0.23899999260902405,161.23824034011835
1558048964754,,,,161.0994508961837
1558048964807,2.700000047683716,9.307999610900879,-0.04699999839067459,163.96130015841902
1558048964817,,,,163.8454191689606
1558048964871,2.7290000915527344,9.050000190734863,-0.28700000047683716,160.77029041970243
1558048964883,,,,161.17817565655724
1558048964934,2.815000057220459,9.13599967956543,-0.29600000381469727,161.30099611821242
1558048964965,,,,160.86419186041178
1558048964997,2.8529999256134033,9.184000015258789,-0.37299999594688416,159.9905287032971
1558048965030,,,,159.51192368777598
1558048965063,2.7960000038146973,9.194000244140625,-0.20100000500679016,161.5105053408134
1558048965097,,,,161.5011479816505
1558048965129,2.7769999504089355,9.213000297546387,-0.1340000033378601,162.31786102146557
1558048965162,,,,161.640333576557
1558048965195,2.8919999599456787,9.039999961853027,-0.4300000071525574,158.39551560755905
1558048965228,,,,157.26335711111608
1558048965261,2.7960000038146973,9.079000473022461,-0.3160000145435333,158.26871997580693
1558048965294,,,,157.43587402917225
1558048965327,2.815000057220459,9.184000015258789,-0.11400000005960464,160.08740810648456
1558048965360,,,,158.6840910999921
1558048965393,2.9010000228881836,9.069000244140625,-0.1720000058412552,
1558048965394,,,,158.26153461680008
1558048965426,,,,157.57635736002106
1558048965459,3.0450000762939453,9.069000244140625,,
1558048965460,,,-0.2770000100135803,156.76372877332963
1558048965492,,,,155.76590643748247
1558048965526,2.9779999256134033,8.96399974822998,-0.3160000145435333,155.14399039279613
1558048965559,,,,154.83954154073197
1558048965593,2.9779999256134033,8.503999710083008,-0.1809999942779541,156.85567677993635
1558048965624,,,,156.43314761750102
1558048965657,3.4189999103546143,8.388999938964844,-0.2290000021457672,157.33512873891456
1558048965690,,,,157.04155354800906
1558048965724,3.763000011444092,9.001999855041504,0.01899999938905239,159.64578173512987
1558048965757,,,,159.74969623316244
1558048965790,3.9639999866485596,9.336999893188477,-0.6029999852180481,154.78028281949295
1558048965823,,,,155.07469129347717
1558048965855,3.6010000705718994,10.256999969482422,0.257999986410141,161.08076349861454
1558048965887,,,,161.89318717963087
1558048965918,3.427999973297119,8.581000328063965,0.24899999797344208,162.69628082224096
1558048965949,,,,163.3890805701337
1558048965981,3.4189999103546143,8.149999618530273,-0.0860000029206276,160.582979311904
1558048966016,,,,162.42838714261472
1558048966047,3.178999900817871,8.217000007629395,-0.3630000054836273,159.13541633996817
1558048966078,,,,161.0329385140461
1558048966112,3.7060000896453857,8.340999603271484,-0.5839999914169312,160.807473969544
1558048966141,,,,162.4317612560647
1558048966178,3.447000026702881,8.878000259399414,-0.6029999852180481,161.0050850026108
1558048966204,,,,163.7255220282702
1558048966244,3.5429999828338623,10.142000198364258,0.24899999797344208,170.752447967136
1558048966270,,,,173.01201114835962
1558048966310,4.625,,,
1558048966311,,12.038000106811523,-0.9279999732971191,165.16281239569432
1558048966336,,,,166.90856776641456
1558048966399,2.5850000381469727,13.27299976348877,5.697999954223633,205.78950522144783
1558048966402,,,,207.5222559119884
1558048966461,2.872999906539917,5.955999851226807,2.700000047683716,194.79729929955283
1558048966468,,,,196.547712859287
1558048966525,2.4130001068115234,8.8100004196167,2.2690000534057617,200.4536794795638
1558048966558,,,,202.19595145380742
1558048966591,1.9249999523162842,9.222000122070312,3.4860000610351562,210.21559074702117
1558048966623,,,,212.4189824525106
1558048966656,2.134999990463257,8.140000343322754,1.8380000591278076,203.6220403109927
1558048966667,,,,205.3708419460827
1558048966725,1.2920000553131104,8.446999549865723,2.000999927520752,217.83075989796515
1558048966731,,,,218.4172545816158
1558048966794,1.406999945640564,8.446999549865723,1.0149999856948853,207.14869920590206
1558048966797,,,,208.2995860810492
1558048966862,1.2350000143051147,8.27400016784668,0.6029999852180481,202.423082564467
1558048966863,,,,204.16042314212973
1558048966904,1.781000018119812,8.446999549865723,-0.05700000002980232,182.85073836568858
1558048966931,,,,184.45349689594536
1558048966970,2.6519999504089355,10.017000198364258,-0.16200000047683716,183.06532924903206
1558048966997,,,,183.9985516557092
1558048967062,3.371000051498413,11.92300033569336,-2.125999927520752,165.5169303834028
1558048967127,0.4020000100135803,11.760000228881836,7.0960001945495605,227.1975993634506
1558048967129,,,,227.21254381735457
1558048967168,5.927999973297119,8.312000274658203,2.2690000534057617,195.4930633495453
1558048967194,,,,195.6180558113565
1558048967234,2.930000066757202,9.031000137329102,1.6950000524520874,204.96439104895364
1558048967261,,,,205.425087308471
1558048967328,1.4550000429153442,7.776000022888184,0.16200000047683716,193.50636622566367
1558048967391,2.815000057220459,7.144000053405762,0.6320000290870667,194.31594854798527
1558048967455,3.494999885559082,7.269000053405762,-0.28700000047683716,183.61816476045283
1558048967459,,,,182.19163877116068
1558048967519,2.6429998874664307,7.679999828338623,0.0,185.274690539856
1558048967523,,,,184.63578098451467
1558048967564,3.2750000953674316,9.883000373840332,-0.37299999594688416,180.76981195201745
1558048967590,,,,180.27288836914238
1558048967650,4.193999767303467,12.0,-2.2980000972747803,167.73141431610432
1558048967654,,,,166.76270224649977
1558048967717,0.8140000104904175,13.694999694824219,5.63100004196167,227.57067795629507
1558048967721,,,,226.60232105652733
1558048967782,1.406999945640564,7.585000038146973,4.242000102996826,215.28371405457568
1558048967814,,,,214.9968597698135
1558048967847,4.683000087738037,11.060999870300293,0.4779999852180481,183.55561388803392
1558048967879,,,,182.7443103580414
1558048967912,1.465000033378601,7.631999969482422,0.9760000109672546,202.72194432179003
1558048967919,,,,201.86709150564957
1558048967978,0.8040000200271606,7.901000022888184,0.6600000262260437,209.49825695962977
1558048967984,,,,209.28290109509925
1558048968047,0.1720000058412552,,,
1558048968048,,8.560999870300293,0.4399999976158142,240.09553734680594
1558048968051,,,,239.68002961883735
1558048968118,0.6029999852180481,8.312000274658203,0.02800000086426735,178.53874067754546
1558048968158,1.1200000047683716,8.704999923706055,-0.9190000295639038,144.55259363177578
1558048968187,,,,143.93149720978985
1558048968224,1.6369999647140503,11.204999923706055,-0.2290000021457672,169.38800839739923
1558048968256,,,,170.27063276270496
1558048968292,3.006999969482422,13.866999626159668,0.06700000166893005,178.07717015381434
1558048968326,,,,179.59684626300717
1558048968362,-0.5929999947547913,9.729999542236328,7.058000087738037,230.75943373258553
1558048968396,,,,231.85293335832625
1558048968432,4.107999801635742,8.418000221252441,-0.37299999594688416,177.16576337134617
1558048968466,,,,178.95203542422294
1558048968502,0.14300000667572021,9.73900032043457,1.7039999961853027,254.75228319238533
1558048968538,,,,256.81277368005976
1558048968573,0.8420000076293945,7.0960001945495605,1.2730000019073486,229.36446321725884
1558048968578,,,,230.73974912739754
1558048968642,2.375,8.024999618530273,1.2920000553131104,205.5568689783172
1558048968644,,,,206.1202093206815
1558048968711,2.183000087738037,7.928999900817871,0.06700000166893005,187.57421032772424
1558048968752,1.684999942779541,8.704999923706055,-0.5839999914169312,172.58597126869088
1558048968781,,,,172.70909225866956
1558048968818,1.4170000553131104,10.975000381469727,0.8140000104904175,213.03203291165426
1558048968853,,,,212.3404489374338
1558048968888,3.13100004196167,12.918999671936035,-2.4609999656677246,159.1514263033827
1558048968923,,,,158.2524641255823
1558048968956,-1.2059999704360962,11.654999732971191,6.578999996185303,243.84021588002207
1558048968990,,,,243.74683353368965
1558048969023,2.805999994277954,5.248000144958496,1.4739999771118164,201.23348217710418
1558048969058,,,,200.01359673096158
1558048969091,2.259999990463257,10.956000328063965,1.1679999828338623,204.7068929172442
1558048969125,,,,203.72337299751894
1558048969159,1.5889999866485596,7.326000213623047,1.1770000457763672,
1558048969160,,,,209.9192015181776
1558048969193,,,,209.79597124517227
1558048969228,0.6700000166893005,8.072999954223633,0.8999999761581421,228.29228744210684
1558048969261,,,,228.10611014571066
1558048969295,0.5170000195503235,8.723999977111816,0.3160000145435333,211.43635045737756
1558048969305,,,,212.16817790618774
1558048969363,0.5740000009536743,8.704999923706055,0.1720000058412552,198.59903723309526
1558048969371,,,,200.0107280515101
1558048969421,1.253999948501587,8.791000366210938,-0.4020000100135803,169.42281504140962
1558048969453,,,,170.39374009230525
1558048969487,1.3309999704360962,11.607000350952148,0.04699999839067459,187.25737151250564
1558048969520,,,,188.88053864800258
1558048969553,3.5139999389648438,13.522000312805176,0.8519999980926514,196.5136985172203
1558048969587,,,,198.22115018707518
1558048969619,-1.6759999990463257,8.972999572753906,7.565000057220459,236.14991464820798
1558048969653,,,,236.08933087026998
1558048969688,5.0279998779296875,8.9350004196167,0.4779999852180481,191.349201240477
1558048969724,,,,192.16995775228065
1558048969760,0.5260000228881836,10.017000198364258,0.2770000100135803,218.56339330909736
1558048969798,,,,219.6666464449729
1558048969808,0.5360000133514404,8.072999954223633,0.7179999947547913,240.352133893545
1558048969834,,,,240.76492320622384
1558048969908,3.0350000858306885,8.043999671936035,0.02800000086426735,191.05122740774596
1558048969945,2.4130001068115234,7.556000232696533,-0.5740000009536743,181.15782133838752
1558048969982,,,,180.42901283319054
1558048970018,1.503000020980835,8.178000450134277,-0.8230000138282776,168.6474656272081
1558048970056,,,,167.18106499354138
1558048970093,2.259999990463257,10.975000381469727,0.01899999938905239,189.70442338644614
1558048970096,,,,188.43746427654378
1558048970138,3.0739998817443848,12.498000144958496,-3.2079999446868896,155.52986876014518
1558048970166,,,,153.9954667631018
1558048970209,-0.8330000042915344,12.803999900817871,5.401000022888184,251.08156877769125
1558048970241,,,,249.0174173086217
1558048970276,1.4459999799728394,4.960000038146973,0.14300000667572021,188.11731964976696
1558048970312,,,,185.62439622536067
1558048970350,3.055000066757202,10.956000328063965,0.7749999761581421,191.86601433421515
1558048970387,,,,189.38273513691684
1558048970423,1.9819999933242798,7.728000164031982,,
1558048970424,,,0.11400000005960464,181.4655896623883
1558048970427,,,,179.8939185107677
1558048970468,0.8709999918937683,7.823999881744385,0.6700000166893005,208.69532724155977
1558048970497,,,,207.94235352707915
1558048970534,0.9860000014305115,9.270000457763672,-0.20999999344348907,165.63369929745335
1558048970568,,,,165.08074084262745
1558048970603,0.8899999856948853,8.64799976348877,-0.8809999823570251,
1558048970604,,,,137.87299647258348
1558048970639,,,,137.13606004227412
1558048970674,1.1770000457763672,7.995999813079834,,
1558048970675,,,-1.1490000486373901,139.96434575492802
1558048970710,,,,140.23941113318276
1558048970745,1.5800000429153442,9.98799991607666,-0.16200000047683716,170.54950938651658
1558048970780,,,,171.88201099169436
1558048970815,4.2129998207092285,12.506999969482422,-3.188999891281128,152.27577539425434
1558048970823,,,,154.48692619464092
1558048970887,0.5740000009536743,12.65999984741211,4.107999801635742,239.36105978459778
1558048970890,,,,242.02171899464122
1558048970957,4.078999996185303,7.776000022888184,1.2450000047683716,192.56903204510616
1558048970996,2.010999917984009,9.347000122070312,1.9819999933242798,216.2522485392618
1558048971028,,,,218.046853422926
1558048971064,1.0240000486373901,8.734000205993652,1.49399995803833,230.37837747879053
1558048971100,,,,232.44430479704425
1558048971135,2.509000062942505,8.303000450134277,1.0529999732971191,
1558048971136,,,,203.39962203086043
1558048971171,,,,204.8076382075019
1558048971207,2.614000082015991,9.164999961853027,0.5929999947547913,198.21416973374335
1558048971219,,,,199.10688911864236
1558048971281,2.9210000038146973,9.107000350952148,0.5070000290870667,196.55698825617992
1558048971284,,,,196.48893225128984
1558048971326,4.107999801635742,,,
1558048971356,,,,196.10988407311083
1558048971394,4.021999835968018,8.217000007629395,-0.7369999885559082,180.556587106508
1558048971432,,,,178.9386482534497
1558048971471,2.259999990463257,9.069000244140625,-0.1809999942779541,182.97191958194298
1558048971509,,,,180.70503443792904
1558048971546,2.499000072479248,,,
1558048971547,,9.347000122070312,0.8999999761581421,197.86158170840895
1558048971549,,,,194.40258266741773
1558048971590,3.2170000076293945,8.619000434875488,-0.5740000009536743,173.8919990606457
1558048971620,,,,170.61130893812685
1558048971657,2.431999921798706,8.906000137329102,-0.3160000145435333,171.69437203481576
1558048971694,,,,168.31484907500683
1558048971730,2.384000062942505,9.184000015258789,-0.4020000100135803,166.62909008595597
1558048971768,,,,163.93205328839304
1558048971807,2.3359999656677246,9.26099967956543,-0.41100001335144043,163.52882624055218
1558048971816,,,,161.56233281623545
1558048971881,2.546999931335449,9.480999946594238,,
1558048971882,,,0.06700000166893005,170.03242308521158
1558048971924,2.2690000534057617,9.126999855041504,-0.41100001335144043,159.50716987611364
1558048971957,,,,158.18255030923805
1558048971995,2.078000068664551,9.42300033569336,-0.4300000071525574,156.51516452905454
1558048972033,,,,156.03080849425226
1558048972072,2.2119998931884766,9.42300033569336,-0.4690000116825104,156.1643660132827
1558048972076,,,,156.06101159076204
1558048972146,2.3269999027252197,8.96399974822998,-0.4690000116825104,157.0309530944172
1558048972184,2.2880001068115234,9.222000122070312,-0.16200000047683716,162.14332236741507
1558048972221,,,,162.43432940719265
1558048972258,2.7290000915527344,10.142000198364258,0.45899999141693115,172.66449112338935
1558048972294,,,,172.41240250150253
1558048972331,1.9049999713897705,8.906000137329102,-0.5450000166893005,152.57635835924825
1558048972368,,,,152.10410541965524
1558048972382,1.781000018119812,9.432999610900879,-0.5929999947547913,149.50133889301682
1558048972407,,,,149.94291062285814
1558048972478,2.0390000343322754,9.54800033569336,-0.6890000104904175,150.52066266437117
1558048972515,2.2690000534057617,9.45199966430664,-0.05700000002980232,163.30077988454377
1558048972550,,,,163.11340047485365
1558048972586,1.9149999618530273,9.279999732971191,-0.0949999988079071,161.48095794246393
1558048972625,,,,161.11154033101462
1558048972662,1.819000005722046,9.184000015258789,-0.6990000009536743,146.97516610773093
1558048972698,,,,146.74104088336122
1558048972713,1.2730000019073486,,,
1558048972736,,9.489999771118164,-0.257999986410141,152.17102761314302
1558048972738,,,,152.03700564124904
1558048972808,2.068000078201294,,,
1558048972809,,9.42300033569336,-0.24899999797344208,157.91529866739378
1558048972846,2.068000078201294,9.336999893188477,-0.5839999914169312,
1558048972847,,,,150.57111044158088
1558048972884,,,,149.86577046637203
1558048972923,1.944000005722046,,,
1558048972924,,9.37600040435791,-0.5450000166893005,149.53704712199763
1558048972963,,,,149.01583538643396
1558048973003,2.059000015258789,9.336999893188477,-0.6990000009536743,147.1136550233421
1558048973042,2.1540000438690186,9.470999717712402,-0.5450000166893005,151.22333886580375
1558048973081,,,,151.38899827393325
1558048973119,2.1059999465942383,9.355999946594238,-0.4690000116825104,152.56611307549323
1558048973157,,,,152.8154149801987
1558048973197,2.0969998836517334,9.385000228881836,-0.5740000009536743,150.69700448836258
1558048973235,,,,150.94351967588668
1558048973241,2.0299999713897705,,,
1558048973242,,9.404000282287598,-0.4300000071525574,153.2831190138045
1558048973275,,,,153.25179576627082
1558048973314,2.0299999713897705,9.42300033569336,-0.16200000047683716,158.9497991190839
1558048973353,,,,159.34519877013597
1558048973391,2.125999927520752,9.336999893188477,-0.1340000033378601,160.31007227342698
1558048973398,,,,161.28079241864754
1558048973469,2.125999927520752,9.279999732971191,-0.0949999988079071,162.1067398742205
1558048973508,2.0390000343322754,9.37600040435791,-0.1809999942779541,159.94464349245294
1558048973544,,,,160.278817327785
1558048973580,2.068000078201294,9.355999946594238,-0.0860000029206276,162.42068268923094
1558048973617,,,,162.54419983018147
1558048973654,2.068000078201294,9.347000122070312,0.02800000086426735,164.9830418167396
1558048973664,,,,165.49622124983932
1558048973729,2.068000078201294,9.298999786376953,-0.11400000005960464,162.48388925981024
1558048973768,2.125999927520752,9.37600040435791,-0.04699999839067459,164.40550834127998
1558048973803,,,,164.09789028144095
1558048973840,2.0390000343322754,9.347000122070312,0.05700000002980232,166.1798548838659
1558048973877,,,,166.61603076426292
1558048973917,2.115999937057495,9.395000457763672,-0.02800000086426735,164.89651698033387
1558048973954,,,,165.0825986540817
1558048973966,2.0490000247955322,9.37600040435791,0.0,165.57144895335784
1558048973993,,,,166.52846773910335
1558048974065,2.0969998836517334,9.307999610900879,0.06700000166893005,168.01380165714934
1558048974066,,,,168.3099996406961
1558048974103,2.0969998836517334,9.355999946594238,0.11400000005960464,169.27918982354257
1558048974141,,,,169.79760118154655
1558048974179,2.115999937057495,9.336999893188477,0.11400000005960464,169.7998005024593
1558048974216,,,,170.0993862598344
1558048974254,2.068000078201294,9.288999557495117,0.14300000667572021,170.728665248446
1558048974257,,,,170.8351752183632
1558048974296,2.125999927520752,9.270000457763672,0.1340000033378601,170.62563867500555
1558048974330,,,,171.53518764601947
1558048974366,2.0969998836517334,9.298999786376953,0.2290000021457672,173.51767737337232
1558048974404,,,,174.21971153702293
1558048974440,2.125999927520752,9.270000457763672,0.4779999852180481,179.14848532513085
1558048974453,,,,180.1355605856901
1558048974511,2.1540000438690186,9.586000442504883,0.4020000100135803,178.53609056414751
1558048974547,,,,178.80718077230532
1558048974584,2.1540000438690186,9.395000457763672,0.3919999897480011,178.61745177754068
1558048974585,,,,179.44738806358893
1558048974626,2.1540000438690186,9.336999893188477,0.3440000116825104,178.5100812037881
1558048974660,,,,178.95472651875593
1558048974699,2.1540000438690186,9.298999786376953,0.45899999141693115,181.18816103868073
1558048974738,,,,181.52727993097187
1558048974777,2.183000087738037,,,
1558048974778,,9.336999893188477,0.28700000047683716,178.09554336268167
1558048974782,,,,178.71457706753827
1558048974824,2.000999927520752,9.385000228881836,0.3440000116825104,180.43572007895546
1558048974855,,,,180.74835149764522
1558048974894,1.5989999771118164,9.145999908447266,0.6890000104904175,191.49159702429336
1558048974932,,,,191.91916686633613
1558048974969,1.1679999828338623,8.791000366210938,0.1720000058412552,180.10975613100572
1558048975008,,,,179.7096536673391
1558048975046,1.4359999895095825,9.930999755859375,-0.9190000295639038,146.24798318755634
1558048975088,1.503000020980835,11.052000045776367,0.9190000295639038,199.600097078609
1558048975121,,,,200.5837809228742
1558048975157,1.7330000400543213,8.878000259399414,-0.05700000002980232,173.33942309641333
1558048975196,,,,173.97700759505568
1558048975236,1.1100000143051147,8.685999870300293,-0.29600000381469727,162.488820656391
1558048975275,,,,163.16558312011256
1558048975315,1.225000023841858,8.619000434875488,-0.45899999141693115,158.79019125855905
1558048975354,1.378999948501587,8.465999603271484,-0.5929999947547913,158.2203212553482
1558048975391,,,,160.33597235075968
1558048975427,0.9380000233650208,9.126999855041504,-0.4690000116825104,156.17797175010935
1558048975463,,,,157.49378037295563
1558048975491,2.2980000972747803,10.592000007629395,-1.1200000047683716,160.45954413322355
1558048975519,,,,162.44049023782398
1558048975550,2.8340001106262207,13.435999870300293,-1.7519999742507935,158.09261037824731
1558048975582,,,,159.91760960371803
1558048975623,0.8230000138282776,,,
1558048975624,,12.928999900817871,4.251999855041504,242.4293583446859
1558048975645,,,,243.45481562591493
1558048975689,4.2230000495910645,6.626999855041504,2.7290000915527344,204.07135747535278
1558048975710,,,,204.85353707872434
1558048975755,2.3550000190734863,9.940999984741211,1.2640000581741333,207.98785624732977
1558048975780,,,,209.10710568624143
1558048975824,1.1100000143051147,9.567000389099121,2.0969998836517334,236.43012998909694
1558048975847,,,,236.9837987835965
1558048975880,2.2790000438690186,7.690000057220459,0.5260000228881836,197.88175808721724
1558048975913,,,,197.58672123582937
1558048975957,2.546999931335449,7.9770002365112305,1.034000039100647,203.39857018172825
1558048975978,,,,203.05152826999984
1558048976023,2.308000087738037,8.359999656677246,0.2290000021457672,192.31795429121655
1558048976037,,,,191.51995596972722
1558048976089,1.7619999647140503,8.380000114440918,-0.5170000195503235,175.44915924800355
1558048976112,,,,174.01436872981566
1558048976144,2.7669999599456787,9.42300033569336,-0.1340000033378601,183.9811619940824
1558048976181,,,,182.220735377025
1558048976210,4.098999977111816,13.350000381469727,-1.062999963760376,174.1221354545401
1558048976234,,,,172.53197179311277
1558048976297,0.382999986410141,12.383000373840332,6.4070000648498535,232.68815621079204
1558048976301,,,,231.15479240250255
1558048976344,2.441999912261963,4.423999786376953,1.340000033378601,196.95563907727683
1558048976368,,,,195.08198158415894
1558048976415,3.8299999237060547,10.170000076293945,1.0429999828338623,188.45191695682752
1558048976437,,,,186.63410309036362
1558048976482,1.6759999990463257,8.072999954223633,1.7519999742507935,208.68448090115777
1558048976505,,,,207.2083267573562
1558048976540,1.253999948501587,7.73799991607666,0.7850000262260437,199.31142596352765
1558048976573,,,,197.86802940698544
1558048976621,1.378999948501587,8.187999725341797,0.5070000290870667,188.85787608033638
1558048976630,,,,187.58833515892786
1558048976672,1.1009999513626099,8.380000114440918,-0.5170000195503235,151.16080165376312
1558048976697,,,,151.28982392718467
1558048976738,1.6369999647140503,8.532999992370605,-0.4779999852180481,159.89259745097746
1558048976783,,,,160.272711138667
1558048976806,1.9630000591278076,11.052000045776367,0.0949999988079071,174.54645412653798
1558048976831,,,,175.55177601009382
1558048976877,5.401000022888184,13.484000205993652,0.5740000009536743,178.45191531281625
1558048976900,,,,179.08504652811976
1558048976944,-2.1449999809265137,8.906000137329102,6.501999855041504,227.0985889412421
1558048976967,,,,227.42974383296098
1558048977011,7.0,9.088000297546387,-1.9919999837875366,168.17528098950677
1558048977038,,,,168.32420643416972
1558048977068,-0.8330000042915344,10.295000076293945,2.3359999656677246,260.5008299450566
1558048977106,,,,261.0504279468108
1558048977134,1.1770000457763672,7.133999824523926,0.3440000116825104,188.39264457521017
1558048977176,,,,188.31988940017118
