timestamp,AccX,AccY,AccZ,CompassSensor
1558054283933,-1.7519999742507935,,,101.62100247155377
1558054283934,,2.757999897003174,7.679999828338623,
1558054283976,,,,92.02453204617245
1558054283977,-0.14300000667572021,2.872999906539917,10.055999755859375,
1558054284028,,,,94.22273280789273
1558054284045,-1.312000036239624,2.7190001010894775,5.97599983215332,87.30311597107698
1558054284091,,,,87.20618192637613
1558054284094,-1.062999963760376,3.188999891281128,,
1558054284095,,,7.2210001945495605,85.74615385920504
1558054284158,,,,86.5579081816827
1558054284160,-0.14300000667572021,,,
1558054284161,,4.078999996185303,8.446999549865723,79.27957663984711
1558054284223,,,,80.32995045116832
1558054284226,-1.0049999952316284,,,
1558054284227,,4.2129998207092285,8.446999549865723,83.14514269118331
1558054284289,,,,84.6573124224783
1558054284296,-0.14300000667572021,4.289999961853027,9.595999717712402,84.62178177841588
1558054284355,,,,86.08888592156711
1558054284358,1.0429999828338623,,,
1558054284359,,4.461999893188477,12.277000427246094,91.05497986329999
1558054284436,-0.1809999942779541,3.5139999389648438,9.088000297546387,90.84740358423414
1558054284489,,,,93.94085090084627
1558054284494,1.3209999799728394,4.461999893188477,,
1558054284495,,,8.532999992370605,77.92410510849055
1558054284554,,,,78.95185733328071
1558054284557,0.4020000100135803,,,
1558054284558,,3.4189999103546143,7.307000160217285,86.68462868135396
1558054284623,-0.3160000145435333,3.86899995803833,7.039000034332275,84.36561553359456
1558054284624,,,,85.2914681661573
1558054284698,,,,86.9872675332881
1558054284699,1.8860000371932983,4.758999824523926,8.628999710083008,77.66574637294565
1558054284756,,,,81.77364753603393
1558054284757,-7.210999965667725,9.998000144958496,4.797999858856201,108.65176697673309
1558054284820,1.8669999837875366,,,111.45684370658728
1558054284821,,13.331000328063965,3.9639999866485596,19.120907968228323
1558054284885,,,,21.906006394760198
1558054284886,0.3540000021457672,7.326000213623047,,
1558054284887,,,12.324999809265137,94.45510267364568
1558054284951,,,,100.14450681829373
1558054284952,0.4880000054836273,3.9549999237060547,,
1558054284953,,,1.7519999742507935,42.65868753683958
1558054285016,,,,50.340608126542065
1558054285018,2.546999931335449,10.055999755859375,-14.835000038146973,
1558054285019,,,,226.41384881656995
1558054285081,,,,226.59345547098462
1558054285084,0.20999999344348907,,,
1558054285085,,7.986999988555908,4.635000228881836,
1558054285086,,,,79.68856836734744
1558054285147,,,,87.65840875132267
1558054285150,-0.6320000290870667,7.958000183105469,-4.5970001220703125,220.42634106559672
1558054285213,,,,223.10602918266784
1558054285217,1.312000036239624,7.556000232696533,0.20100000500679016,
1558054285218,,,,341.7428565372317
1558054285279,,,,346.7023789832094
1558054285283,3.4189999103546143,11.137999534606934,-0.29600000381469727,324.9805375403612
1558054285345,,,,329.11900379998525
1558054285348,3.74399995803833,13.446000099182129,-3.619999885559082,277.782984394373
1558054285412,,,,279.3823551508016
1558054285414,-2.0299999713897705,,,
1558054285415,,10.572999954223633,,
1558054285417,,,8.465999603271484,120.8660303449268
1558054285477,,,,121.56516850836931
1558054285480,4.9029998779296875,11.300999641418457,,
1558054285481,,,-2.2119998931884766,295.68208251066005
1558054285543,,,,293.8508473224771
1558054285549,-1.9249999523162842,9.26099967956543,1.6369999647140503,134.7145257550728
1558054285616,1.1770000457763672,5.6020002365112305,0.04699999839067459,134.0911207291474
1558054285675,,,,341.09154677345225
1558054285679,0.7269999980926514,5.229000091552734,-0.04699999839067459,335.88047102166394
1558054285746,0.9760000109672546,7.679999828338623,-0.5450000166893005,334.34589826989134
1558054285807,,,,303.351507269276
1558054285810,2.1540000438690186,,,
1558054285811,,12.708000183105469,-0.9190000295639038,307.80284058911633
1558054285873,,,,305.35535158306897
1558054285885,-0.14300000667572021,15.218000411987305,0.4880000054836273,
1558054285886,,,,86.62514456387237
1558054285941,,,,84.65449838454026
1558054285943,-0.008999999612569809,9.45199966430664,,
1558054285944,,,9.126999855041504,116.81996288439467
1558054286015,1.9149999618530273,12.498000144958496,0.6890000104904175,116.71087110297123
1558054286071,,,,352.08799082772725
1558054286074,-0.3160000145435333,6.02400016784668,2.490000009536743,96.9707296468531
1558054286137,,,,94.98565127780478
1558054286140,-0.1809999942779541,2.825000047683716,,
1558054286141,,,1.8480000495910645,106.26870031493729
1558054286203,,,,104.87080647864582
1558054286208,0.5450000166893005,,,
1558054286209,,5.429999828338623,0.8519999980926514,34.28599235033323
1558054286277,0.8999999761581421,11.272000312805176,0.11400000005960464,31.33476323261914
1558054286335,,,,330.60527003885295
1558054286339,1.8380000591278076,14.192999839782715,1.2829999923706055,0.8209853231409738
1558054286407,1.1299999952316284,6.789999961853027,3.390000104904175,358.5301312310605
1558054286467,,,,63.112757931047895
1558054286470,3.5810000896453857,3.8970000743865967,,
1558054286471,,,5.994999885559082,134.15633537534268
1558054286533,,,,132.28034195752866
1558054286538,2.4700000286102295,19.584999084472656,6.636000156402588,
1558054286539,,,,46.683267222242876
1558054286599,,,,46.112731275587976
1558054286602,5.2769999504089355,18.62700080871582,3.188999891281128,350.3149223842898
1558054286668,,,,352.0669965337659
1558054286669,-0.5929999947547913,9.461999893188477,,
1558054286670,,,1.809999942779541,81.13443745236913
1558054286731,,,,82.2765680250003
1558054286734,-0.8330000042915344,-1.7039999961853027,,
1558054286735,,,2.000999927520752,128.04703169108976
1558054286797,,,,126.6970311412584
1558054286800,-3.236999988555908,-0.7850000262260437,,
1558054286801,,,0.8519999980926514,129.9854393775394
1558054286863,,,,130.9564873718401
1558054286866,-0.9860000014305115,4.145999908447266,,
1558054286867,,,5.353000164031982,114.44131535499187
1558054286938,2.25,23.100000381469727,9.758999824523926,115.16446163336695
1558054286995,,,,68.63586062978447
1558054286999,3.1500000953674316,20.648000717163086,3.936000108718872,28.049886204139057
1558054287061,,,,28.100040283214412
1558054287064,2.86299991607666,6.828000068664551,-3.1600000858306885,255.3733386332363
1558054287127,,,,254.62783031551857
1558054287130,3.1019999980926514,,,
1558054287131,,-4.999000072479248,2.441999912261963,173.55852190460902
1558054287193,,,,174.14624602231027
1558054287201,-3.312999963760376,,,
1558054287202,,-2.9110000133514404,3.188999891281128,121.72024112328529
1558054287259,,,,122.68260111696173
1558054287263,4.2129998207092285,10.630000114440918,2.2119998931884766,353.57022810875833
1558054287336,5.285999774932861,24.163000106811523,7.288000106811523,353.71832923496584
1558054287393,,,,36.78862488864468
1558054287395,2.010999917984009,15.255999565124512,1.0149999856948853,356.4844077190933
1558054287458,,,,0.14278956023031242
1558054287468,-2.2980000972747803,3.7820000648498535,-0.5550000071525574,170.04231319912975
1558054287526,,,,172.82900305973828
1558054287527,-2.739000082015991,-7.114999771118164,3.2750000953674316,102.20156855100481
1558054287592,0.10499999672174454,,,
1558054287593,,2.3459999561309814,-0.16200000047683716,275.73567617179674
1558054287656,,,,280.4578230771334
1558054287658,0.3160000145435333,,,
1558054287659,,17.784000396728516,4.586999893188477,81.66101088643126
1558054287721,,,,82.86591089753489
1558054287724,5.113999843597412,,,
1558054287725,,29.68899917602539,1.0529999732971191,353.44529583798914
1558054287787,,,,353.5094505242026
1558054287790,3.6579999923706055,,,
1558054287792,,10.265999794006348,0.5550000071525574,346.74163720301135
1558054287861,3.1019999980926514,-2.930000066757202,-0.1720000058412552,345.66302653588764
1558054287920,,,,195.22809299088385
1558054287922,-0.6790000200271606,-1.7139999866485596,2.2209999561309814,127.92904700336697
1558054287985,,,,128.4866636472068
1558054287988,3.4760000705718994,5.861000061035156,,
1558054287989,,,2.183000087738037,41.09602221701073
1558054288051,,,,36.46948771477042
1558054288054,5.822000026702881,22.075000762939453,9.154999732971191,
1558054288055,,,,62.85189934626675
1558054288117,,,,62.62082038626687
1558054288124,2.134999990463257,21.385000228881836,3.1410000324249268,42.57986032362845
1558054288185,,,,44.85692927969484
1558054288186,-1.8569999933242798,6.961999893188477,1.3209999799728394,136.46212527686896
1558054288250,,,,138.79218967070545
1558054288252,-1.4359999895095825,-5.420000076293945,,
1558054288253,,,-0.257999986410141,5.757534427845258
1558054288315,,,,1.2200400858943112
1558054288318,-5.104000091552734,0.01899999938905239,3.677000045776367,138.85122982589104
1558054288384,,,,140.30190736408838
1558054288385,0.008999999612569809,9.347000122070312,4.625,103.61799952070373
1558054288447,,,,104.87133923340107
1558054288460,0.9380000233650208,30.406999588012695,3.7820000648498535,
1558054288461,,,,75.17490615623626
1558054288515,,,,75.59498328075955
1558054288516,1.7519999742507935,,,
1558054288517,,17.094999313354492,,
1558054288518,,,4.730999946594238,77.75167698289357
1558054288580,,,,77.94121473236146
1558054288583,3.1410000324249268,-0.16200000047683716,-2.671999931335449,219.15760610651017
1558054288648,-0.8610000014305115,,,218.79913045811122
1558054288649,,-4.232999801635742,4.586999893188477,
1558054288711,,,,123.46957551313062
1558054288714,2.2119998931884766,1.1679999828338623,0.1809999942779541,194.80255854521374
1558054288777,,,,201.16360934189493
1558054288780,2.6429998874664307,11.376999855041504,,
1558054288781,,,2.2119998931884766,38.66822123124592
1558054288843,,,,36.11038368896783
1558054288846,9.883000373840332,,,
1558054288847,,28.969999313354492,4.261000156402588,15.218240329320565
1558054288919,0.008999999612569809,15.77299976348877,,15.419619919261947
1558054288920,,,-0.8610000014305115,
1558054288975,,,,257.5213443347461
1558054288979,-0.257999986410141,2.3359999656677246,3.552999973297119,120.93867623693907
1558054289042,,,,121.49662072985907
1558054289044,-4.7210001945495605,-8.005999565124512,2.375,64.22114053899003
1558054289107,,,,60.37657048916242
1558054289110,0.2680000066757202,,,
1558054289111,,3.505000114440918,1.4359999895095825,92.97912611476261
1558054289184,2.3459999561309814,25.034000396728516,,93.94483973132157
1558054289185,,,4.145999908447266,
1558054289240,,,,64.8533428485664
1558054289242,6.770999908447266,26.825000762939453,,
1558054289243,,,7.9770002365112305,62.75812084896245
1558054289305,,,,61.9779151702611
1558054289308,6.559999942779541,,,
1558054289309,,6.11899995803833,-3.572000026702881,266.06158064649827
1558054289371,,,,265.45288784804507
1558054289375,0.14300000667572021,-7.585000038146973,3.677000045776367,113.29074949873572
1558054289438,,,,114.64753925660207
1558054289440,-2.3269999027252197,-0.621999979019165,-0.257999986410141,180.99822713824096
1558054289507,1.4459999799728394,15.170000076293945,12.545999526977539,173.77296252379074
1558054289578,10.343000411987305,31.20199966430664,17.325000762939453,102.0968207698935
1558054289635,,,,74.09808585244872
1558054289638,-9.050000190734863,9.385000228881836,,
1558054289641,,,-0.7369999885559082,174.03856125985584
1558054289701,,,,175.34584580661794
1558054289718,-0.9380000233650208,-3.0739998817443848,-0.5260000228881836,334.29320677553926
1558054289777,-1.6080000400543213,-1.3209999799728394,2.7960000038146973,332.031550141335
1558054289833,,,,113.65757846848959
1558054289836,0.5550000071525574,4.423999786376953,,
1558054289837,,,3.2170000076293945,97.10330361864305
1558054289907,0.3540000021457672,26.950000762939453,4.423999786376953,83.97222395815851
1558054289971,3.188999891281128,,,81.91756645203526
1558054289972,,20.926000595092773,4.40500020980835,
1558054290035,3.2750000953674316,3.687000036239624,-2.115999937057495,51.29299604403036
1558054290097,,,,271.8565317043905
1558054290100,-0.20100000500679016,-7.39300012588501,1.7999999523162842,104.80771602128243
1558054290177,0.1340000033378601,-0.382999986410141,2.2690000534057617,108.54639081821813
1558054290237,2.125999927520752,5.218999862670898,,129.1727971304696
1558054290238,,,7.239999771118164,
1558054290296,,,,105.19735099267496
1558054290298,12.699000358581543,36.402000427246094,,
1558054290299,,,5.401000022888184,359.60817549941123
1558054290361,,,,358.694066229868
1558054290365,0.44999998807907104,15.293999671936035,2.86299991607666,
1558054290366,,,,64.46600965092415
1558054290437,-3.3320000171661377,1.6369999647140503,1.4550000429153442,67.12119104925324
1558054290498,-2.5759999752044678,-6.204999923706055,4.2230000495910645,146.22532061989025
1558054290559,,,,108.12025531590103
1558054290562,0.01899999938905239,2.86299991607666,0.621999979019165,81.47632257127412
1558054290626,,,,83.81137983339386
1558054290629,0.33500000834465027,22.524999618530273,5.50600004196167,83.48649505533308
1558054290691,,,,84.3724115718187
1558054290701,-0.2290000021457672,,,
1558054290702,,24.076000213623047,4.021999835968018,87.01769602604048
1558054290759,,,,88.27632230515542
1558054290760,3.572000026702881,4.078999996185303,,
1558054290761,,,-0.7179999947547913,277.43861308661013
1558054290823,,,,273.98856159343165
1558054290826,0.1340000033378601,-5.343999862670898,4.051000118255615,129.84378125415333
1558054290890,,,,131.7534065234405
1558054290892,-1.1579999923706055,0.12399999797344208,,
1558054290893,,,-2.7669999599456787,216.90640307683066
1558054290955,,,,215.02521871524743
1558054290959,3.0739998817443848,,,
1558054290968,,10.946000099182129,8.791000366210938,106.37885077568211
1558054291029,11.607000350952148,34.237998962402344,6.568999767303467,105.75023431541999
1558054291091,-4.567999839782715,13.531999588012695,4.318999767303467,22.99851905816587
1558054291155,,,,138.43308564490286
1558054291156,-4.28000020980835,0.45899999141693115,,
1558054291157,,,1.4359999895095825,154.96105060606652
1558054291219,,,,156.96863444843
1558054291222,-0.5550000071525574,-5.343999862670898,2.068000078201294,106.77959163466511
1558054291285,,,,104.67376918146931
1558054291306,1.2730000019073486,4.021999835968018,0.9279999732971191,47.50869558343891
1558054291370,-1.2920000553131104,22.582000732421875,2.747999906539917,50.627544373574324
1558054291435,,,,117.28169733266589
1558054291436,-2.0199999809265137,24.986000061035156,5.190000057220459,
1558054291483,,,,118.04960184067207
1558054291486,3.9639999866485596,5.639999866485596,-1.8480000495910645,
1558054291487,,,,274.25077938585764
1558054291549,,,,270.0644813114759
1558054291552,-0.6029999852180481,-6.396999835968018,2.7190001010894775,108.62454184270143
1558054291615,,,,110.69759987844867
1558054291635,1.1679999828338623,-0.41100001335144043,2.700000047683716,144.3307627479121
1558054291691,2.4509999752044678,4.616000175476074,8.388999938964844,145.6976338649934
1558054291747,,,,131.73414538998108
1558054291750,7.872000217437744,36.32600021362305,,
1558054291752,,,5.583000183105469,31.069697251309265
1558054291813,,,,29.519937573917105
1558054291816,-4.070000171661377,18.416000366210938,5.650000095367432,
1558054291817,,,,128.0486845968689
1558054291879,,,,128.92941016958537
1558054291882,-4.7210001945495605,3.236999988555908,-0.5550000071525574,175.38479154526536
1558054291945,,,,176.88702335131796
1558054291968,-1.465000033378601,-5.229000091552734,-0.640999972820282,340.6160836449493
1558054292013,,,,337.7220232105882
1558054292014,-3.9070000648498535,,,
1558054292015,,1.1679999828338623,2.4130001068115234,152.9121987607378
1558054292078,,,,153.44545894999737
1558054292080,-1.4259999990463257,,,
1558054292081,,9.001999855041504,3.802000045776367,123.89510995880076
1558054292143,,,,124.03646755386333
1558054292146,-1.2640000581741333,41.54499816894531,,
1558054292147,,,2.3550000190734863,113.11636110884695
1558054292209,,,,111.91205532420113
1558054292212,3.3519999980926514,9.949999809265137,2.509000062942505,50.679071320672904
1558054292275,,,,49.991220044833824
1558054292294,2.757999897003174,-3.2170000076293945,-1.1490000486373901,201.2550109333681
1558054292350,-0.7749999761581421,-3.111999988555908,3.821000099182129,202.33829259611048
1558054292416,1.225000023841858,3.5429999828338623,2.078000068664551,134.94795430014716
1558054292480,3.677000045776367,24.996000289916992,8.015999794006348,92.91255909111169
1558054292546,-1.465000033378601,22.113000869750977,3.4860000610351562,69.17104010220078
1558054292611,-5.199999809265137,6.02400016784668,-2.0490000247955322,106.19645057389693
1558054292679,-0.8610000014305115,-4.453000068664551,1.6660000085830688,185.32151831680562
1558054292748,-4.175000190734863,-1.4359999895095825,3.1019999980926514,98.80478570316325
1558054292803,,,,139.5981383323886
1558054292806,0.746999979019165,11.51099967956543,,
1558054292807,,,8.560999870300293,114.58108151597784
1558054292869,,,,114.4706919986121
1558054292872,-2.4130001068115234,36.1150016784668,2.5759999752044678,128.80559250031138
1558054292935,,,,127.6758245700779
1558054292947,4.165999889373779,10.803000450134277,2.068000078201294,31.22350969632339
1558054293018,1.628000020980835,-4.5970001220703125,-1.1579999923706055,28.983255459883367
1558054293076,-0.4880000054836273,-2.0869998931884766,3.552999973297119,216.0830101120073
1558054293133,,,,135.25580458641798
1558054293136,2.632999897003174,2.5280001163482666,,
1558054293138,,,1.406999945640564,132.1729577233977
1558054293200,,,,135.570170873157
1558054293222,0.9670000076293945,22.572999954223633,,
1558054293223,,,10.170000076293945,92.25363708150223
1558054293270,8.619000434875488,29.496999740600586,3.5910000801086426,89.49814752502232
1558054293342,-6.473999977111816,8.503999710083008,-3.13100004196167,2.924353817433996
1558054293413,-1.5700000524520874,-5.01800012588501,1.2350000143051147,185.81855118270755
1558054293463,,,,75.28265922058233
1558054293466,-5.515999794006348,-1.350000023841858,2.9110000133514404,138.16709075786588
1558054293529,,,,138.99761444018276
1558054293550,6.204999923706055,5.209000110626221,5.046999931335449,124.09502959580703
1558054293596,,,,123.97442211544296
1558054293619,-4.932000160217285,37.263999938964844,5.190000057220459,128.26095321589457
1558054293668,3.5329999923706055,12.97700023651123,3.4089999198913574,128.82377446388196
1558054293738,4.28000020980835,-1.7619999647140503,-2.078000068664551,48.71858504773121
1558054293795,,,,207.88650990042515
1558054293797,-2.010999917984009,-5.994999885559082,3.9260001182556152,111.4850660482378
1558054293859,,,,113.36822433449117
1558054293863,1.090999960899353,3.878000020980835,0.746999979019165,30.252717834116538
1558054293942,2.5850000381469727,17.410999298095703,2.7860000133514404,26.37739144245637
1558054294012,10.428999900817871,32.150001525878906,1.2059999704360962,35.57952089610694
1558054294059,,,,343.71026349934994
1558054294060,-5.802999973297119,,,
1558054294061,,6.923999786376953,-1.7519999742507935,179.52833946563194
1558054294130,-2.872999906539917,-1.8380000591278076,0.4300000071525574,181.77186900515005
1558054294189,,,,128.887172279758
1558054294192,-4.145999908447266,,,
1558054294193,,-5.572999954223633,1.6180000305175781,81.93364471734151
1558054294257,,,,81.95313807723272
1558054294258,3.246000051498413,6.675000190734863,,
1558054294259,,,6.664999961853027,110.8686073246983
1558054294330,,,,111.58284703639569
1558054294331,1.1970000267028809,29.621999740600586,7.814000129699707,86.35792024278476
1558054294406,0.9959999918937683,16.174999237060547,2.881999969482422,86.5126376878639
1558054294456,,,,71.50215634516945
1558054294457,3.303999900817871,0.5740000009536743,-2.441999912261963,219.0805479122941
1558054294519,,,,218.31381819682514
1558054294523,-1.8480000495910645,-7.105999946594238,,
1558054294524,,,2.930000066757202,97.49916089236945
1558054294588,,,,100.67064995043819
1558054294589,0.8140000104904175,2.632999897003174,0.6700000166893005,44.62891024444309
1558054294661,1.6469999551773071,18.503000259399414,4.519999980926514,39.52051955663677
1558054294719,,,,65.85703231691059
1558054294720,9.42300033569336,,,
1558054294721,,27.55299949645996,5.142000198364258,16.923905904707397
1558054294785,,,,18.338762515802614
1558054294787,-5.688000202178955,10.380999565124512,-2.1540000438690186,181.81581444226993
1558054294854,-2.624000072479248,-2.940000057220459,1.1200000047683716,183.79572235811656
1558054294930,-4.184999942779541,-3.063999891281128,5.23799991607666,101.29105652331793
1558054294981,,,,129.35840069097554
1558054294992,5.822000026702881,,,
1558054294993,,4.567999839782715,6.991000175476074,131.3544278532634
1558054295047,,,,131.74542886248992
1558054295051,-0.6510000228881836,33.930999755859375,2.384000062942505,99.38787212241812
1558054295113,,,,100.02213031893461
1558054295123,1.944000005722046,16.290000915527344,6.875999927520752,91.65624141593622
1558054295179,,,,92.23612447647031
1558054295199,3.3320000171661377,1.7039999961853027,-2.183000087738037,224.62024114052463
1558054295249,-0.6890000104904175,-7.872000217437744,2.490000009536743,223.3975962979573
1558054295311,,,,105.67555302703505
1558054295314,-0.6320000290870667,0.4690000116825104,,
1558054295315,,,0.8040000200271606,143.48526729093456
1558054295377,,,,142.75010670980942
1558054295380,1.3020000457763672,9.050000190734863,1.3980000019073486,43.35558198313976
1558054295448,14.442000389099121,34.736000061035156,-1.5219999551773071,41.61822433000401
1558054295510,,,,324.32724702172237
1558054295512,-8.22599983215332,,,
1558054295513,,11.63599967956543,0.8040000200271606,166.5431253250622
1558054295575,,,,168.5452450160897
1558054295578,-3.1500000953674316,-1.215999960899353,,
1558054295579,,,-0.12399999797344208,166.12233103067604
1558054295650,-1.6660000085830688,-3.9549999237060547,6.1479997634887695,170.44678334139957
1558054295718,2.546999931335449,3.888000011444092,2.2690000534057617,125.94244550213375
1558054295773,,,,91.83360776830312
1558054295779,-0.3440000116825104,20.3700008392334,4.664000034332275,101.89385486851745
1558054295844,3.878000020980835,29.8799991607666,0.0860000029206276,101.14180322957486
1558054295916,3.86899995803833,7.0960001945495605,-0.6890000104904175,354.8634330743201
1558054295996,1.406999945640564,-6.866000175476074,-0.0949999988079071,322.4228673377178
1558054296048,-3.802000045776367,-5.448999881744385,4.999000072479248,191.77815078073206
1558054296103,,,,116.98442017923023
1558054296124,2.546999931335449,8.418000221252441,8.484999656677246,111.80841403373535
1558054296172,15.486000061035156,,,109.88143325376717
1558054296173,,29.641000747680664,-1.2920000553131104,
1558054296235,,,,315.6900561747019
1558054296238,-0.008999999612569809,17.009000778198242,5.497000217437744,89.26406328178763
1558054296301,,,,89.4738047308204
1558054296304,-2.2880001068115234,2.632999897003174,-0.4399999976158142,175.1386725087131
1558054296373,-3.0739998817443848,-6.291999816894531,3.6010000705718994,176.5442024964967
1558054296440,-3.5329999923706055,2.5280001163482666,0.20999999344348907,101.64833005842297
1558054296513,0.15299999713897705,12.190999984741211,-0.257999986410141,167.4406941442719
1558054296579,3.6579999923706055,38.86399841308594,-0.0949999988079071,285.93421411213626
1558054296631,,,,343.26824097702337
1558054296635,4.816999912261963,6.166999816894531,0.7749999761581421,338.99321703777593
1558054296704,,,,331.9373772006062
1558054296705,1.7899999618530273,-6.291999816894531,-0.5070000290870667,205.24776193723915
1558054296763,,,,206.5894159959047
1558054296776,0.257999986410141,-1.3209999799728394,3.246000051498413,137.82071820467618
1558054296847,0.8999999761581421,5.63100004196167,3.4089999198913574,138.96771187199644
1558054296852,1.2640000581741333,,,
1558054296853,,9.557000160217285,6.348999977111816,97.95799251024346
1558054296896,4.921999931335449,22.323999404907227,5.620999813079834,43.347283303298184
1558054296920,12.354000091552734,32.494998931884766,5.458000183105469,4.252195312607171
1558054296944,11.866000175476074,31.996999740600586,2.068000078201294,340.9615853490198
1558054296969,2.441999912261963,20.934999465942383,4.175000190734863,48.29638714947066
1558054296994,-0.008999999612569809,15.944999694824219,4.165999889373779,83.01966528594102
1558054297018,-4.913000106811523,6.426000118255615,-1.2450000047683716,174.86994554600813
1558054297028,,,,176.03178804458398
1558054297033,-5.678999900817871,4.031000137329102,-1.406999945640564,175.70307836058797
1558054297055,-5.526000022888184,0.04699999839067459,0.1340000033378601,158.59718377299285
1558054297072,-5.085000038146973,,,
1558054297073,,-5.880000114440918,-1.2350000143051147,35.97134152803392
1558054297093,-2.183000087738037,-4.960000038146973,4.126999855041504,117.47344806342483
1558054297102,,,,115.44112527588752
1558054297113,-1.0049999952316284,-4.13700008392334,5.353000164031982,127.75829227411663
1558054297133,-2.441999912261963,-2.930000066757202,3.2750000953674316,119.0373837984393
1558054297153,-2.259999990463257,-0.02800000086426735,0.8809999823570251,145.0253929865024
1558054297163,,,,146.291477832191
1558054297172,-1.406999945640564,1.8860000371932983,,
1558054297173,,,2.0490000247955322,134.15313884681112
1558054297192,1.2730000019073486,4.491000175476074,,
1558054297193,,,8.944999694824219,123.98327404060728
1558054297215,3.619999885559082,11.128000259399414,5.074999809265137,69.90392623033233
1558054297226,,,,71.61327669277642
1558054297232,2.757999897003174,,,
1558054297233,,17.315000534057617,6.914000034332275,77.99516639661539
1558054297260,1.944000005722046,29.458999633789062,10.77400016784668,86.1027853565281
1558054297285,2.441999912261963,35.74100112915039,-1.090999960899353,320.06638718726623
1558054297303,1.9149999618530273,36.87200164794922,1.4550000429153442,320.7322930653021
1558054297327,1.1490000486373901,21.21299934387207,3.2170000076293945,65.54492682278686
1558054297353,2.632999897003174,14.690999984741211,4.40500020980835,64.07231754716463
1558054297357,,,,37.67077114070855
1558054297379,3.2170000076293945,3.8499999046325684,-2.2690000534057617,256.75040039255924
1558054297406,3.0739998817443848,-1.0049999952316284,-2.1740000247955322,215.34170236062914
1558054297432,2.134999990463257,-4.145999908447266,0.5929999947547913,177.70114091924847
1558054297443,0.4020000100135803,-5.888999938964844,2.872999906539917,128.07653810830422
1558054297469,-0.746999979019165,-6.02400016784668,2.930000066757202,
1558054297470,,,,111.5568786571713
1558054297481,-0.19099999964237213,-3.9639999866485596,3.821000099182129,127.89784669923836
1558054297507,0.1809999942779541,-1.6759999990463257,3.6480000019073486,129.60614531255024
1558054297518,0.1340000033378601,0.7179999947547913,-1.6950000524520874,226.36831877556267
1558054297545,0.8040000200271606,3.1410000324249268,0.28700000047683716,5.698374317462367
1558054297557,2.2209999561309814,5.50600004196167,2.8440001010894775,74.93184021424298
1558054297583,3.0260000228881836,8.71500015258789,7.785999774932861,103.8853194644397
1558054297594,2.365000009536743,16.194000244140625,4.367000102996826,58.28879339575383
1558054297624,3.1410000324249268,23.434999465942383,9.317999839782715,
1558054297625,,,,76.46868741900926
1558054297636,11.51099967956543,34.678001403808594,1.4259999990463257,338.27230252371214
1558054297662,16.174999237060547,32.48500061035156,-1.1200000047683716,312.6966779596196
1558054297673,7.296999931335449,23.32900047302246,1.5219999551773071,345.60049273894157
1558054297702,0.9760000109672546,15.831000328063965,4.165999889373779,345.10853811868765
1558054297721,-2.0299999713897705,13.159000396728516,,
1558054297722,,,4.500999927520752,109.24753022708745
1558054297748,-3.437999963760376,9.614999771118164,1.9819999933242798,139.06246025616284
1558054297760,-2.7860000133514404,4.193999767303467,-0.8610000014305115,176.36324346462638
1558054297786,-2.0390000343322754,0.8999999761581421,-0.6029999852180481,177.0942649511145
1558054297797,-3.3420000076293945,,,
1558054297798,,-2.805999994277954,-1.8769999742507935,234.83160617612543
1558054297812,-3.0450000762939453,-6.080999851226807,,
1558054297813,,,0.8610000014305115,61.188078924829995
1558054297844,-3.0450000762939453,-6.5980000495910645,5.372000217437744,57.594142666595985
1558054297856,-3.4760000705718994,-5.0279998779296875,5.0279998779296875,116.06377898100422
1558054297872,-2.6040000915527344,0.05700000002980232,1.7330000400543213,137.70476891332606
1558054297885,,,,138.73037645871682
1558054297892,-1.5700000524520874,2.9590001106262207,0.4399999976158142,155.9963160389437
1558054297921,1.034000039100647,5.056000232696533,3.9170000553131104,99.08620998753531
1558054297948,2.757999897003174,7.6519999504089355,7.747000217437744,105.73369159725021
1558054297968,2.9010000228881836,15.170000076293945,4.797999858856201,106.91284862537202
1558054297995,0.29600000381469727,,,
1558054297996,,22.266000747680664,6.38700008392334,87.88066310691488
1558054298023,1.6469999551773071,38.63399887084961,,
1558054298024,,,-2.0299999713897705,292.0967727813478
1558054298051,7.202000141143799,32.22700119018555,4.635000228881836,26.55379644569757
1558054298053,2.9010000228881836,15.197999954223633,5.171000003814697,67.32091944096277
1558054298079,4.414999961853027,11.060999870300293,1.1009999513626099,2.199938617977182
1558054298090,,,,3.0350255069898253
1558054298092,3.677000045776367,,,
1558054298093,,6.85699987411499,-0.9480000138282776,309.09872213505906
1558054298119,3.3420000076293945,1.0429999828338623,-2.2880001068115234,227.61137222336998
1558054298147,2.183000087738037,-2.4700000286102295,-1.1100000143051147,208.60753198996838
1558054298158,0.4690000116825104,-5.285999774932861,1.781000018119812,128.58975852253897
1558054298189,-1.6759999990463257,-6.0329999923706055,3.1410000324249268,102.17436390754068
1558054298208,-0.9959999918937683,,,
1558054298209,,-4.107999801635742,3.0739998817443848,114.84659828977294
1558054298236,0.765999972820282,-1.5889999866485596,5.372000217437744,134.94337807340327
1558054298237,,,,136.23858684571277
1558054298274,1.7519999742507935,1.7039999961853027,-3.246000051498413,233.56717423621603
1558054298281,,,,10.510015910833317
1558054298299,2.5280001163482666,6.90500020980835,8.475000381469727,115.48900490196928
1558054298312,1.49399995803833,11.569000244140625,,
1558054298313,,,3.8499999046325684,72.79048711698476
1558054298342,2.8440001010894775,19.479000091552734,4.883999824523926,58.64024760968596
1558054298348,,,,56.61070812423543
1558054298352,10.055999755859375,29.679000854492188,7.296999931335449,
1558054298353,,,,32.20434535170472
1558054298372,19.010000228881836,32.95399856567383,,
1558054298373,,,-0.746999979019165,317.2907622331131
1558054298395,9.222000122070312,28.67300033569336,-0.5740000009536743,330.0272277143002
1558054298422,1.6950000524520874,22.43899917602539,1.6180000305175781,29.523253630759143
1558054298449,-2.8919999599456787,17.35300064086914,3.9639999866485596,120.55598073774325
1558054298452,-5.927999973297119,11.732000350952148,0.6600000262260437,162.00410945175187
1558054298475,-3.0739998817443848,4.625,-2.115999937057495,
1558054298476,,,,192.912235390521
1558054298502,-0.9190000295639038,1.819000005722046,1.225000023841858,194.27040484659972
1558054298528,-5.074999809265137,-1.531999945640564,1.809999942779541,138.06205610880943
1558054298538,-4.193999767303467,-6.953000068664551,1.5219999551773071,70.52729027512271
1558054298565,-2.431999921798706,-8.503999710083008,2.614000082015991,67.03276059006907
1558054298576,-0.45899999141693115,-6.320000171661377,2.5280001163482666,110.29859388751487
1558054298604,-2.2309999465942383,-1.9819999933242798,2.000999927520752,118.03789489643466
1558054298614,-2.4030001163482666,0.24899999797344208,1.0429999828338623,149.28969865139481
1558054298644,-1.312000036239624,2.4609999656677246,2.4030001163482666,133.72301451401873
1558054298654,1.0429999828338623,,,
1558054298655,,6.798999786376953,5.401000022888184,108.14489863842647
1558054298681,3.7060000896453857,12.555000305175781,4.702000141143799,68.0331715676117
1558054298692,1.406999945640564,18.73200035095215,3.9839999675750732,
1558054298693,,,,75.68840660822696
1558054298726,-0.8330000042915344,28.415000915527344,0.765999972820282,
1558054298727,,,,131.91069211964756
1558054298746,-2.499000072479248,33.625,1.1299999952316284,150.67318078853756
1558054298774,-2.6040000915527344,34.650001525878906,3.619999885559082,125.46528848671664
1558054298792,5.323999881744385,14.62399959564209,,
1558054298793,,,3.0160000324249268,40.396976261122006
1558054298812,5.678999900817871,,,41.67408161703639
1558054298813,,10.572999954223633,0.06700000166893005,348.98286815650266
1558054298832,4.980000019073486,,,
1558054298833,,3.265000104904175,-2.259999990463257,231.1190431923867
1558054298869,3.86899995803833,-1.2059999704360962,-3.7920000553131104,214.71738208935494
1558054298872,3.74399995803833,-3.9639999866485596,-0.3919999897480011,188.00408877370648
1558054298875,,,,187.5802755357072
1558054298896,1.5219999551773071,,,
1558054298897,,-6.340000152587891,2.930000066757202,138.31275137210557
1558054298913,-1.809999942779541,-5.229000091552734,3.0929999351501465,104.03778977728189
1558054298937,-0.5550000071525574,-2.2980000972747803,2.5759999752044678,124.83206164876475
1558054298941,,,,126.77189001456173
1558054298966,0.7940000295639038,-0.9860000014305115,3.763000011444092,139.6885427162429
1558054298995,0.14300000667572021,-0.2199999988079071,1.090999960899353,138.6017639966455
1558054298996,,,,221.58235058262142
1558054299024,2.4130001068115234,4.251999855041504,1.4359999895095825,221.4403236290201
1558054299044,0.4399999976158142,8.062999725341797,10.305000305175781,127.335107413521
1558054299072,-1.5889999866485596,14.413000106811523,7.451000213623047,119.59930346145626
1558054299073,-0.20100000500679016,26.489999771118164,5.229000091552734,95.96270983857511
1558054299074,,,,93.2082926217949
1558054299117,17.85099983215332,32.590999603271484,-2.2119998931884766,312.6450041634539
1558054299137,4.89300012588501,23.204999923706055,1.684999942779541,10.111251537841383
1558054299166,-3.609999895095825,20.58099937438965,2.565999984741211,9.089144464400249
1558054299177,-6.675000190734863,16.20400047302246,3.9639999866485596,
1558054299178,,,,148.91925651156998
1558054299211,-3.6579999923706055,10.11299991607666,2.259999990463257,147.47140667168904
1558054299222,-3.2750000953674316,5.888999938964844,-1.4550000429153442,189.12776417520035
1558054299251,-2.86299991607666,,,
1558054299252,,1.2640000581741333,0.4020000100135803,166.48362071701305
1558054299272,-3.7730000019073486,-5.0370001792907715,3.25600004196167,111.69628964832043
1558054299273,,-8.696000099182129,-0.3160000145435333,11.809469645712
1558054299301,-1.781000018119812,-7.1539998054504395,1.1770000457763672,58.591343455228696
1558054299313,0.765999972820282,-2.5179998874664307,,
1558054299314,,,3.4760000705718994,138.9856889298919
1558054299342,-0.5550000071525574,-0.7369999885559082,4.13700008392334,136.3654917604916
1558054299353,-1.781000018119812,1.9049999713897705,1.465000033378601,150.31066166814998
1558054299376,-1.1390000581741333,5.775000095367432,0.4880000054836273,155.178414546213
1558054299405,2.690999984741211,6.493000030517578,5.583000183105469,112.29409512523662
1558054299433,1.3309999704360962,,,
1558054299434,0.05700000002980232,10.687999725341797,4.683000087738037,96.49397561259707
1558054299462,3.3610000610351562,35.29100036621094,0.9279999732971191,11.078058838441166
1558054299472,,,,11.819766155885759
1558054299474,0.45899999141693115,36.62300109863281,-1.378999948501587,281.19806531900105
1558054299500,-0.5070000290870667,24.565000534057617,0.2290000021457672,151.4575460524435
1558054299540,0.11400000005960464,,,
1558054299541,2.930000066757202,18.358999252319336,4.519999980926514,98.1657395440385
1558054299552,2.930000066757202,,,
1558054299553,,8.217000007629395,1.6369999647140503,41.6280734627872
1558054299582,3.13100004196167,4.021999835968018,-2.384000062942505,253.90375513141635
1558054299594,3.821000099182129,-0.12399999797344208,-2.7190001010894775,211.81258459761852
1558054299623,3.2170000076293945,-4.539000034332275,0.4300000071525574,212.01432106494406
1558054299632,0.8999999761581421,-7.451000213623047,1.8669999837875366,
1558054299633,,,,132.42613917555175
1558054299674,-1.1009999513626099,-9.461999893188477,1.8960000276565552,79.44918389731686
1558054299705,-0.1720000058412552,-1.972000002861023,5.190000057220459,135.93592750321116
1558054299735,-0.8330000042915344,1.062999963760376,-0.8899999856948853,205.78531148529748
1558054299765,0.6890000104904175,6.90500020980835,7.61299991607666,122.42242555109763
1558054299774,1.4459999799728394,12.086000442504883,6.980999946594238,102.96536128513071
1558054299809,3.0160000324249268,23.63599967956543,7.556000232696533,79.00239390294962
1558054299828,14.375,,,
1558054299829,,29.909000396728516,-6.301000118255615,288.2025882373892
1558054299858,17.957000732421875,31.815000534057617,1.3589999675750732,332.166506141598
1558054299869,,,,352.1184235893479
1558054299872,4.021999835968018,20.091999053955078,,
1558054299873,,,2.5280001163482666,21.695515332466073
1558054299900,0.3540000021457672,15.657999992370605,4.999000072479248,
1558054299901,,,,89.08733896720275
1558054299930,-5.09499979019165,10.659000396728516,4.2230000495910645,140.9678781289213
1558054299932,,,,141.30229785106346
1558054299959,-7.239999771118164,,,
1558054299989,-3.6010000705718994,1.062999963760376,0.5450000166893005,161.75730739628264
1558054299992,-2.240999937057495,-4.89300012588501,0.4300000071525574,48.16264180023802
1558054300019,,,,44.43858360812612
1558054300020,-1.6080000400543213,-5.822000026702881,2.1540000438690186,93.03979868515984
1558054300048,-1.215999960899353,-4.702000141143799,,
1558054300049,,,4.2230000495910645,122.54491816367263
1558054300078,-4.5970001220703125,-3.8499999046325684,4.816999912261963,125.09113072398333
1558054300079,,,,125.55596607813771
1558054300122,-5.63100004196167,1.809999942779541,-0.12399999797344208,172.80869007714668
1558054300133,,,,110.32280007793338
1558054300134,4.769000053405762,10.276000022888184,6.5980000495910645,96.31300292034837
1558054300168,1.1299999952316284,16.099000930786133,5.994999885559082,92.80944372521202
1558054300189,1.034000039100647,27.093000411987305,8.005999565124512,91.2715241807461
1558054300219,1.1770000457763672,34.974998474121094,-2.9779999256134033,277.32080598380577
1558054300234,-2.0199999809265137,22.466999053955078,4.01200008392334,118.37322986392559
1558054300264,,,,118.62074225906852
1558054300306,3.936000108718872,3.86899995803833,-2.000999927520752,246.79236707327414
1558054300354,,,,246.24508450564855
1558054300385,1.3209999799728394,-8.52299976348877,0.8999999761581421,158.15193740137804
1558054300393,,,,159.28468329408963
1558054300444,-0.03799999877810478,-0.4399999976158142,2.1449999809265137,138.13929188794393
1558054300474,,,,139.06198214292095
1558054300506,0.9480000138282776,7.133999824523926,9.347000122070312,126.23684031573964
1558054300527,,,,125.62407672454111
1558054300570,19.85300064086914,32.80099868774414,0.24899999797344208,312.6261596715338
1558054300600,,,,310.4741719697379
1558054300642,-2.930000066757202,,,
1558054300643,,15.850000381469727,6.664999961853027,118.28947808432292
1558054300673,,,,117.76127223504915
1558054300705,-3.303999900817871,3.3519999980926514,-0.1809999942779541,169.72490064802093
1558054300737,,,,171.0338517609405
1558054300769,-1.350000023841858,-7.019999980926514,4.3379998207092285,117.88421564010937
1558054300800,,,,115.48957863785958
1558054300832,-4.567999839782715,3.178999900817871,-0.257999986410141,172.91625189619603
1558054300863,,,,174.40217321051065
1558054300895,1.3980000019073486,17.641000747680664,4.01200008392334,73.42421255874609
1558054300926,,,,74.12545442045297
1558054300959,0.20100000500679016,34.821998596191406,-1.406999945640564,265.45737528232974
1558054300990,,,,265.6812620531336
1558054301028,3.8970000743865967,8.024999618530273,0.5740000009536743,356.166730925041
1558054301083,,,,356.6300367437081
1558054301091,3.9639999866485596,-4.7779998779296875,-1.340000033378601,200.3018716950712
1558054301147,,,,200.42045743944095
1558054301179,-1.225000023841858,-3.811000108718872,5.2769999504089355,
1558054301180,,,,128.25624038536725
1558054301211,,,,129.3873333722997
1558054301244,3.0260000228881836,4.788000106811523,1.2450000047683716,35.494379173008156
1558054301265,,,,27.792046562971052
1558054301297,3.878000020980835,25.799999237060547,5.486999988555908,52.72143448629015
1558054301319,,,,50.25103019557736
1558054301380,5.1620001792907715,20.68600082397461,3.5910000801086426,26.511228999242746
1558054301383,,,,26.479316647893143
1558054301442,-7.460000038146973,5.63100004196167,-0.6890000104904175,171.78132034295004
1558054301452,,,,173.45421125560458
1558054301505,-1.4259999990463257,-5.7170000076293945,2.1059999465942383,95.28200635570249
1558054301515,,,,93.65822450318035
1558054301570,-4.940999984741211,,,
1558054301571,,-1.090999960899353,2.0969998836517334,144.40392773430128
1558054301602,,,,146.6856753699491
1558054301633,5.142000198364258,8.187999725341797,5.813000202178955,101.80394908847256
1558054301664,,,,102.94411256662278
1558054301695,0.2290000021457672,38.70100021362305,-0.23899999260902405,304.8067098077985
1558054301726,,,,305.06690586423014
1558054301758,4.051000118255615,11.817999839782715,4.309000015258789,69.16065821466236
1558054301789,,,,68.9291216319881
1558054301820,4.2129998207092285,-2.9210000038146973,,
1558054301821,,,-1.465000033378601,198.92647650190565
1558054301852,,,,199.18270421842954
1558054301883,0.37299999594688416,-4.548999786376953,2.2119998931884766,128.20581992891422
1558054301914,,,,129.36090054021176
1558054301949,0.8330000042915344,3.2170000076293945,0.5740000009536743,36.68199539041706
1558054302000,,,,32.86918572023001
1558054302031,4.261000156402588,,,
1558054302032,,22.391000747680664,6.263000011444092,62.1490797108616
1558054302063,,,,59.74330950026467
1558054302094,6.568999767303467,24.334999084472656,2.0299999713897705,4.462472077716086
1558054302126,,,,4.923357448096112
1558054302159,-5.947000026702881,6.501999855041504,0.5070000290870667,166.68354035401933
1558054302193,,,,167.97507448455536
1558054302228,-4.500999927520752,-4.691999912261963,0.29600000381469727,80.62991869913697
1558054302261,,,,74.80539292213854
1558054302294,-1.9529999494552612,-2.7290000915527344,4.2129998207092285,124.56393574270675
1558054302309,,,,124.64957265452037
1558054302371,5.132999897003174,5.955999851226807,8.005999565124512,121.04985805624852
1558054302373,,,,121.67999764869558
1558054302438,0.5450000166893005,39.64899826049805,5.229000091552734,86.3983891136171
1558054302472,,,,86.10199988477353
1558054302506,4.558000087738037,14.86299991607666,3.6010000705718994,51.625131067895154
1558054302573,3.811000108718872,-2.25,-3.246000051498413,211.41293656890275
1558054302639,-2.000999927520752,-6.080999851226807,4.28000020980835,110.56778530308341
1558054302705,-1.1770000457763672,1.781000018119812,-0.3919999897480011,187.1329664469631
1558054302741,3.7920000553131104,18.62700080871582,-1.1490000486373901,324.40505995184174
1558054302769,,,,321.56403935148035
1558054302814,11.003999710083008,,,
1558054302815,,30.329999923706055,0.1720000058412552,339.2867051437695
1558054302848,,,,339.4749588176734
1558054302872,-7.699999809265137,9.145999908447266,0.20100000500679016,
1558054302873,,,,168.7087597448198
1558054302926,,,,169.1649344191066
1558054302960,-2.068000078201294,-2.240999937057495,-1.1100000143051147,276.8252552689538
1558054302967,,,,275.98915815227423
1558054303024,-4.070000171661377,-4.5970001220703125,3.821000099182129,109.74534856474384
1558054303033,,,,108.93801337465916
1558054303089,3.3519999980926514,4.251999855041504,4.75,111.52659359839146
1558054303100,,,,112.18804960818301
1558054303153,-1.4359999895095825,26.01099967956543,9.826000213623047,
1558054303154,,,,108.4546135663407
1558054303186,,,,108.34064502984984
1558054303218,2.5369999408721924,,,
1558054303219,,18.243999481201172,4.683000087738037,69.04783031976297
1558054303251,,,,68.08570255251828
1558054303283,3.6679999828338623,1.2640000581741333,-2.7190001010894775,228.23074743768507
1558054303315,,,,228.50309440065018
1558054303348,-0.5450000166893005,-7.958000183105469,1.934000015258789,94.66542468875792
1558054303381,,,,96.72500676127271
1558054303413,0.6990000009536743,0.02800000086426735,0.0,
1558054303479,2.441999912261963,9.54800033569336,6.8470001220703125,97.28412604672997
1558054303512,,,,95.123136155608
1558054303544,29.381999969482422,,,
1558054303545,,41.487998962402344,0.37299999594688416,319.8075332630065
1558054303579,,,,319.61347051321354
1558054303615,-5.085000038146973,13.934000015258789,3.5910000801086426,139.23859717447914
1558054303648,,,,139.28673634774938
1558054303671,-2.2309999465942383,-0.06700000166893005,-1.7519999742507935,206.68057170056773
1558054303703,,,,209.23552690301608
1558054303735,-3.0450000762939453,-6.177000045776367,6.521999835968018,114.7369327724592
1558054303767,,,,113.66545367660262
1558054303799,1.934000015258789,3.2750000953674316,4.586999893188477,111.51461344658725
1558054303831,,,,111.92079796633874
1558054303865,4.28000020980835,29.68899917602539,4.394999980926514,41.96883160047912
1558054303899,,,,42.59186096600018
1558054303933,1.0149999856948853,20.159000396728516,6.340000152587891,85.31671937551886
1558054303966,,,,85.11991430477411
1558054304000,4.683000087738037,3.734999895095825,-2.757999897003174,253.40095758585505
1558054304035,,,,253.2023288546019
1558054304068,-1.934000015258789,,,
1558054304069,,-6.02400016784668,3.5139999389648438,99.2609535472609
1558054304102,,,,100.46620872820137
1558054304136,0.45899999141693115,0.257999986410141,-0.01899999938905239,
1558054304204,2.9779999256134033,5.888999938964844,9.470999717712402,116.93544772288124
1558054304238,,,,117.19469438301826
1558054304272,17.554000854492188,39.38999938964844,3.4189999103546143,355.4273740464445
1558054304306,,,,354.7849153540557
1558054304339,0.8420000076293945,14.182999610900879,4.816999912261963,82.44712467876468
1558054304373,,,,83.8861772349947
1558054304408,-3.121999979019165,3.6010000705718994,0.1809999942779541,167.6936570303725
1558054304442,,,,169.53339580407211
1558054304476,-2.3269999027252197,-5.09499979019165,3.753999948501587,104.59931328932697
1558054304487,,,,102.63662428037799
1558054304534,-1.1009999513626099,1.0149999856948853,0.02800000086426735,173.22774950348364
1558054304567,,,,174.29835433512645
1558054304600,4.193999767303467,11.92300033569336,2.690999984741211,41.46975309292088
1558054304632,,,,42.97858627680631
1558054304665,4.8460001945495605,40.81700134277344,-0.9190000295639038,342.455373333711
1558054304698,,,,341.6897688919078
1558054304731,5.706999778747559,9.940999984741211,1.8669999837875366,27.817574394993983
1558054304763,,,,25.739163198484732
1558054304798,3.4189999103546143,-3.9839999675750732,0.6700000166893005,176.56563563011218
1558054304831,,,,177.5262744161178
1558054304863,-1.6660000085830688,-5.248000144958496,3.371000051498413,103.81230474221229
1558054304896,,,,105.62128034389013
1558054304929,2.9779999256134033,3.562000036239624,1.2829999923706055,57.19193331694146
1558054304962,,,,49.162578079633306
1558054304995,7.133999824523926,,,
1558054304996,,26.576000213623047,5.650000095367432,36.49106428235848
1558054305029,,,,33.385127964849005
1558054305063,4.702000141143799,23.5310001373291,0.4020000100135803,347.507542173138
1558054305097,,,,348.4035323648758
1558054305130,-2.5950000286102295,7.296999931335449,-0.746999979019165,181.3241910861907
1558054305163,,,,182.68919073143945
1558054305196,-2.2209999561309814,-3.677000045776367,,
1558054305197,,,1.503000020980835,82.61124046414176
1558054305229,,,,79.4973094102088
1558054305264,-4.500999927520752,-4.586999893188477,3.1019999980926514,100.28502430008842
1558054305298,,,,100.16583066888256
1558054305333,3.677000045776367,,,
1558054305334,3.677000045776367,7.421999931335449,5.966000080108643,94.69183703027835
1558054305369,3.4860000610351562,13.387999534606934,3.9639999866485596,56.56830289477341
1558054305404,5.171000003814697,32.75299835205078,-0.3440000116825104,346.96995762036016
1558054305440,4.107999801635742,26.805999755859375,0.5929999947547913,350.6753437828286
1558054305454,5.171000003814697,,,
1558054305455,,13.675999641418457,1.090999960899353,7.293246113662008
1558054305475,5.390999794006348,8.494000434875488,0.11400000005960464,345.63169645816475
1558054305511,4.270999908447266,4.126999855041504,-2.068000078201294,345.7559060095424
1558054305515,3.5239999294281006,0.04699999839067459,-1.7519999742507935,214.54002939736637
1558054305547,2.805999994277954,-4.7210001945495605,0.0,185.56765101373628
1558054305582,-0.5450000166893005,-7.077000141143799,4.4720001220703125,114.34813791433456
1558054305616,-3.505000114440918,-4.13700008392334,4.126999855041504,111.55009627932549
1558054305650,-1.2059999704360962,,,
1558054305651,,0.2290000021457672,0.14300000667572021,165.64820661925043
1558054305684,-0.7940000295639038,2.815000057220459,-0.3919999897480011,194.79546880885528
1558054305694,3.763000011444092,6.742000102996826,,
1558054305695,,,4.664000034332275,91.40630430363797
1558054305729,4.021999835968018,,,
1558054305730,,18.56999969482422,2.1540000438690186,23.432695400683315
1558054305741,12.640999794006348,25.17799949645996,3.6010000705718994,11.902885289216613
1558054305776,20.139999389648438,32.10200119018555,2.3269999027252197,346.81268397698415
1558054305823,4.702000141143799,24.756000518798828,1.9630000591278076,13.720806731159882
1558054305837,-2.25,13.090999603271484,3.7149999141693115,121.8007827139781
1558054305872,-3.763000011444092,9.87399959564209,-1.062999963760376,
1558054305907,-2.308000087738037,6.501999855041504,-1.9819999933242798,204.16956193523924
1558054305943,-1.5609999895095825,-1.49399995803833,0.45899999141693115,89.89582845925713
1558054305955,-2.490000009536743,-6.550000190734863,2.0390000343322754,70.40541920976216
1558054305995,-2.86299991607666,-5.706999778747559,4.2129998207092285,102.59282910741985
1558054306006,,,,120.54443771804594
1558054306043,-3.437999963760376,3.6480000019073486,3.9639999866485596,140.71833033740572
1558054306056,4.040999889373779,4.6539998054504395,5.09499979019165,108.9844928119611
1558054306091,2.3269999027252197,9.173999786376953,1.8860000371932983,109.80725739938083
1558054306102,2.2690000534057617,17.94700050354004,1.7519999742507935,38.86994745328764
1558054306137,3.063999891281128,26.393999099731445,3.2750000953674316,49.50161159455985
1558054306154,3.7820000648498535,37.388999938964844,,
1558054306155,,,2.183000087738037,29.080899844257885
1558054306187,0.6890000104904175,23.27199935913086,6.664999961853027,93.73315167837535
1558054306221,5.7170000076293945,16.06999969482422,5.85099983215332,66.24528759009081
1558054306256,4.070000171661377,6.080999851226807,-2.125999927520752,290.16828252957305
1558054306267,,,,230.3604550624084
1558054306292,1.9049999713897705,-2.7860000133514404,0.01899999938905239,183.44501946499304
1558054306326,1.2640000581741333,-6.434999942779541,4.078999996185303,129.42877896018334
1558054306359,0.14300000667572021,,,102.60535567435767
1558054306360,1.2730000019073486,-3.7920000553131104,2.308000087738037,
1558054306402,-0.9760000109672546,0.4880000054836273,1.1299999952316284,139.59417682267
1558054306437,5.4679999351501465,1.378999948501587,-1.378999948501587,212.38435339341868
1558054306471,2.499000072479248,10.295000076293945,5.515999794006348,87.51806202425729
1558054306482,3.0350000858306885,19.5939998626709,2.2119998931884766,30.083113991741357
1558054306516,10.008000373840332,28.270999908447266,,
1558054306517,,,4.960000038146973,24.3023543593971
1558054306531,,,,337.8517148425484
1558054306534,5.861000061035156,27.820999145507812,-1.406999945640564,327.8286342167027
1558054306565,3.0739998817443848,22.591999053955078,0.8330000042915344,2.803339513927483
1558054306601,1.1390000581741333,16.02199935913086,1.8380000591278076,50.68456962295477
1558054306614,-1.034000039100647,8.39900016784668,,
1558054306615,,,-1.1299999952316284,211.00158159594957
1558054306643,-2.872999906539917,4.107999801635742,-2.509000062942505,201.84916908926743
1558054306679,-1.8960000276565552,1.684999942779541,1.5410000085830688,142.0436875647117
1558054306714,-2.5850000381469727,-5.97599983215332,4.126999855041504,103.4214676575258
1558054306715,-3.3320000171661377,-6.636000156402588,2.499000072479248,78.90072653715401
1558054306763,-4.7210001945495605,-4.2129998207092285,3.9839999675750732,77.82016328970133
1558054306812,1.312000036239624,0.24899999797344208,0.6890000104904175,153.83203399664174
1558054306816,0.8040000200271606,9.050000190734863,4.375999927520752,94.98581520234484
1558054306852,0.5740000009536743,15.312999725341797,1.0049999952316284,55.253351460668
1558054306862,3.888000011444092,24.440000534057617,0.7369999885559082,3.1433540147735357
1558054306901,1.9049999713897705,35.27199935913086,3.390000104904175,57.18320775027678
1558054306938,-2.6040000915527344,27.725000381469727,7.61299991607666,112.87895739367565
1558054306976,5.497000217437744,,,
1558054306977,4.261000156402588,13.800000190734863,-0.7369999885559082,333.71608481897715
1558054307015,3.4660000801086426,3.1500000953674316,-2.193000078201294,313.58565440085346
1558054307053,3.821000099182129,-3.993000030517578,3.6010000705718994,155.36535682379625
1558054307065,-3.6389999389648438,-7.679999828338623,4.6539998054504395,100.21315704964155
1558054307103,-0.12399999797344208,-5.315000057220459,1.3880000114440918,108.7087034336543
1558054307114,0.765999972820282,,,
1558054307115,,-0.0860000029206276,1.378999948501587,141.08515247697042
1558054307125,,,,142.72381048150487
1558054307162,0.3540000021457672,1.6950000524520874,1.656000018119812,111.49637684150332
1558054307201,4.423999786376953,-0.28700000047683716,-0.01899999938905239,193.3625770832566
1558054307239,2.4700000286102295,8.043999671936035,9.107000350952148,114.06781329041888
1558054307289,8.236000061035156,33.55799865722656,12.862000465393066,66.55543281992277
1558054307300,7.039000034332275,,,
1558054307301,,25.847999572753906,-1.3880000114440918,322.5104269477828
1558054307314,4.797999858856201,21.691999435424805,-0.0860000029206276,337.4456583888438
1558054307339,1.6759999990463257,18.273000717163086,,337.8925491285013
1558054307340,,,0.9480000138282776,
1558054307378,-2.757999897003174,11.347999572753906,1.4550000429153442,142.8131083747136
1558054307417,-2.5950000286102295,5.285999774932861,-0.9670000076293945,190.4537634402883
1558054307465,-0.8899999856948853,-3.0350000858306885,2.000999927520752,
1558054307466,,,,110.68059270741534
1558054307503,-3.0350000858306885,-6.742000102996826,3.6480000019073486,97.0755252392886
1558054307541,-1.9249999523162842,-0.9760000109672546,2.6519999504089355,
1558054307542,,,2.5179998874664307,127.73366261196958
1558054307555,0.6510000228881836,2.5280001163482666,6.866000175476074,126.811231904181
1558054307592,-0.257999986410141,5.97599983215332,2.000999927520752,103.92046761790857
1558054307603,-4.5970001220703125,16.405000686645508,0.32499998807907104,170.43257654792595
1558054307646,6.664999961853027,26.527999877929688,4.672999858856201,37.99632186221345
1558054307657,7.986999988555908,33.5099983215332,2.0299999713897705,342.02339972720085
1558054307696,4.9029998779296875,25.599000930786133,2.000999927520752,19.045979085485953
1558054307714,6.052000045776367,11.645000457763672,,
1558054307715,,,-0.1340000033378601,343.8195960449416
1558054307720,,,,343.75298974770294
1558054307746,5.401000022888184,8.800999641418457,-1.090999960899353,318.35482715862565
1558054307783,3.5239999294281006,5.572999954223633,-1.6180000305175781,292.18531252355865
1558054307786,,,,237.8477494117114
1558054307822,-1.2640000581741333,-2.4609999656677246,1.9630000591278076,107.3850059423167
1558054307859,-1.9630000591278076,-4.3379998207092285,4.261000156402588,114.28857183458288
1558054307896,-0.02800000086426735,-1.8860000371932983,1.6369999647140503,123.64393658226271
1558054307944,4.242000102996826,0.257999986410141,-1.1970000267028809,207.9157157893162
1558054307955,1.1299999952316284,8.27400016784668,6.196000099182129,103.2902050820565
1558054307992,3.0450000762939453,17.392000198364258,2.815000057220459,40.42985337669188
1558054307993,,,,38.28214820350553
1558054307995,12.468999862670898,26.030000686645508,1.6180000305175781,352.0335584889105
1558054308041,24.766000747680664,31.374000549316406,3.063999891281128,343.81195135571306
1558054308078,7.9679999351501465,23.885000228881836,2.700000047683716,340.8996457785316
1558054308117,-1.7039999961853027,12.267999649047852,3.2939999103546143,
1558054308118,,,,115.52499999889528
1558054308155,-3.265000104904175,3.427999973297119,-1.4359999895095825,189.82807713118007
1558054308193,-2.0869998931884766,-1.49399995803833,1.7519999742507935,112.95202675741643
1558054308204,-2.8529999256134033,-5.01800012588501,3.7820000648498535,99.21947380843142
1558054308243,-2.9010000228881836,-5.497000217437744,2.308000087738037,77.70512241351076
1558054308253,,,,107.34815707174448
1558054308256,-3.3989999294281006,0.4690000116825104,3.188999891281128,133.78738221675695
1558054308291,-0.640999972820282,,,
1558054308292,,1.1770000457763672,1.4359999895095825,126.72522616215224
1558054308329,0.7559999823570251,,,
1558054308330,3.878000020980835,2.805999994277954,7.105999946594238,119.52881590922172
1558054308335,3.447000026702881,17.12299919128418,2.0390000343322754,29.81436995356347
1558054308368,6.434999942779541,23.770000457763672,2.9010000228881836,23.760957707288753
1558054308405,8.331999778747559,31.863000869750977,-0.3919999897480011,349.1282751999694
1558054308406,,,,349.59968888006813
1558054308444,5.50600004196167,26.288999557495117,2.5369999408721924,23.20127151613036
1558054308454,,,,44.03648695659291
1558054308455,6.914000034332275,9.633999824523926,-0.4880000054836273,336.917247633895
1558054308493,6.493000030517578,4.960000038146973,-2.115999937057495,268.0268378065752
1558054308504,5.209000110626221,0.746999979019165,-2.700000047683716,223.85236395327513
1558054308544,,,,223.4783974358386
1558054308545,2.0390000343322754,-1.972000002861023,-1.0149999856948853,206.7122501179382
1558054308586,-1.531999945640564,-5.401000022888184,2.3359999656677246,84.73288163545533
1558054308626,-1.0240000486373901,-2.700000047683716,3.303999900817871,114.66456008801373
1558054308637,1.8289999961853027,2.1540000438690186,1.1679999828338623,72.36937863389682
1558054308682,2.078000068664551,4.921999931335449,4.548999786376953,69.61231130371863
1558054308734,3.936000108718872,16.031999588012695,10.008000373840332,87.86140197345549
1558054308760,10.630000114440918,24.822999954223633,6.185999870300293,31.566607173806005
1558054308793,,,,30.00879470338242
1558054308835,-1.934000015258789,12.23900032043457,0.5929999947547913,153.7636228219149
1558054308842,,,,154.2769935003114
1558054308917,-2.2690000534057617,-1.6759999990463257,-0.4300000071525574,5.425082227070902
1558054308960,-2.6429998874664307,-1.378999948501587,3.9639999866485596,119.5359466267152
1558054309000,,,,119.85233464944855
1558054309041,1.465000033378601,4.874000072479248,6.080999851226807,107.81825850174891
1558054309122,6.559999942779541,30.177000045776367,-0.5360000133514404,346.6236422700048
1558054309163,6.1479997634887695,17.61199951171875,2.614000082015991,24.242433109808587
1558054309171,,,,24.341788456570157
1558054309232,6.1479997634887695,2.930000066757202,-2.4609999656677246,241.85204343527977
1558054309273,,,,241.24273591980125
1558054309314,-4.261000156402588,-6.8379998207092285,2.6429998874664307,68.83666136119365
1558054309315,,,,71.03484163234634
1558054309355,2.068000078201294,1.684999942779541,0.11400000005960464,322.41442863899823
1558054309394,,,,307.7225448852336
1558054309421,1.2350000143051147,6.933000087738037,12.133999824523926,117.05563173151677
1558054309451,,,,116.84145065952353
1558054309492,13.369000434875488,26.336999893188477,6.894999980926514,31.549309719732946
1558054309501,,,,29.54504876440069
1558054309570,7.355000019073486,18.875999450683594,2.7669999599456787,
1558054309571,,,,14.334000624276143
1558054309651,-4.625,1.3589999675750732,1.4359999895095825,152.09085485266542
1558054309690,-1.9049999713897705,-5.09499979019165,2.5850000381469727,88.3689328401116
1558054309729,,,,86.37160111169231
1558054309768,-2.5759999752044678,0.15299999713897705,0.5260000228881836,156.4728310165788
1558054309818,2.7960000038146973,17.697999954223633,2.757999897003174,46.57562344092349
1558054309831,,,,48.18914293421767
1558054309890,11.539999961853027,31.163999557495117,3.8499999046325684,21.58138116388784
1558054309929,,,,21.534797566201064
1558054309949,3.6010000705718994,10.659000396728516,-1.809999942779541,318.70985697658836
1558054309984,,,,318.46230701540503
1558054310025,1.3309999704360962,-4.5970001220703125,0.28700000047683716,172.73081226023018
1558054310029,,,,173.3644898906673
1558054310107,0.8809999823570251,-3.7920000553131104,2.690999984741211,
1558054310108,,,,127.59628018700394
1558054310149,4.270999908447266,3.936000108718872,0.8040000200271606,26.413249935598913
1558054310190,,,,16.689514302960106
1558054310233,13.770999908447266,27.20800018310547,3.878000020980835,13.847529792152102
1558054310286,6.129000186920166,18.243999481201172,0.8230000138282776,
1558054310287,,,,357.57169507434054
1558054310329,,,,357.08565070215275
1558054310371,-2.624000072479248,,,
1558054310372,,7.440999984741211,0.1809999942779541,168.06389426452222
1558054310414,-2.5850000381469727,-5.171000003814697,1.934000015258789,69.97312287681376
1558054310456,,,,68.23820701630632
1558054310498,-2.5179998874664307,0.7559999823570251,2.6519999504089355,130.99734556345513
1558054310552,3.303999900817871,7.355000019073486,7.834000110626221,99.33659106212963
1558054310596,,,,100.2397947874046
1558054310638,9.652999877929688,,,
1558054310639,,33.04999923706055,3.2170000076293945,16.58538123887405
1558054310693,9.461999893188477,11.204999923706055,2.9779999256134033,33.376894171804565
1558054310740,2.98799991607666,-1.2920000553131104,,
1558054310741,,,-1.9919999837875366,216.58568471416356
1558054310775,,,,216.99504527187906
1558054310819,-1.9249999523162842,-4.309000015258789,4.453000068664551,107.84581148486075
1558054310862,,,,109.83108792939501
1558054310905,0.1340000033378601,4.567999839782715,0.8809999823570251,79.60963187110963
1558054310948,3.6389999389648438,16.290000915527344,4.098999977111816,48.432485498872325
1558054310990,,,,46.90255386064075
1558054311031,11.031999588012695,25.483999252319336,1.8960000276565552,355.2672556292792
1558054311083,-2.078000068664551,9.107000350952148,-0.24899999797344208,173.94672253627584
1558054311124,,,,174.544405069787
1558054311164,-2.441999912261963,,,
1558054311165,,-1.4739999771118164,-0.9480000138282776,235.44218410678957
1558054311216,-1.972000002861023,-3.236999988555908,3.2170000076293945,106.34982247170956
1558054311226,,,,105.370223080568
1558054311271,3.121999979019165,5.074999809265137,1.49399995803833,
1558054311272,,,,35.224252021523284
1558054311323,,,,39.588951221931154
1558054311335,3.3320000171661377,24.459999084472656,8.64799976348877,77.88815782288879
1558054311364,,,,79.45368499197991
1558054311406,5.869999885559082,24.795000076293945,-3.4860000610351562,315.75498395295205
1558054311415,,,,316.3474448068427
1558054311486,4.48199987411499,4.644000053405762,-1.5800000429153442,290.29391702916627
1558054311560,-0.6510000228881836,-5.458000183105469,2.4609999656677246,98.30823095050334
1558054311634,0.746999979019165,-1.9529999494552612,2.996999979019165,130.17318761744468
1558054311671,5.497000217437744,,,
1558054311672,,9.42300033569336,2.805999994277954,38.53922969367562
1558054311680,,,,34.69608032319542
1558054311747,18.511999130249023,29.822999954223633,2.614000082015991,355.030954562772
1558054311823,0.0860000029206276,14.652999877929688,4.089000225067139,88.3331494790499
1558054311863,-0.765999972820282,3.2939999103546143,-0.1809999942779541,181.48280173909677
1558054311896,,,,182.57410204392477
1558054311930,-1.7330000400543213,-6.1479997634887695,2.86299991607666,90.44958604621593
1558054311963,,,,89.19132176712696
1558054311995,-1.6469999551773071,1.8669999837875366,1.8860000371932983,135.63120544358023
1558054312028,,,,137.36343703974384
1558054312093,4.089000225067139,14.413000106811523,4.394999980926514,55.95143777497833
1558054312158,8.10200023651123,34.32400131225586,0.06700000166893005,354.2333536729151
1558054312193,5.113999843597412,10.102999687194824,0.4779999852180481,0.28982149502849097
1558054312226,,,,0.06873356098969907
1558054312261,0.9670000076293945,-2.747999906539917,0.0949999988079071,179.74075834881933
1558054312295,,,,180.81243233243833
1558054312329,0.9860000014305115,-4.48199987411499,4.7779998779296875,
1558054312330,,,,129.36766242749007
1558054312340,,,,130.40128861496643
1558054312391,1.9249999523162842,6.4070000648498535,4.28000020980835,92.32206874679656
1558054312427,,,,90.95123611999668
1558054312473,15.409000396728516,,,
1558054312474,,22.36199951171875,0.2770000100135803,337.40498119724185
1558054312542,2.4700000286102295,20.485000610351562,1.090999960899353,
1558054312543,,,,13.775455074709157
1558054312588,-0.257999986410141,5.994999885559082,,
1558054312589,,,-0.2770000100135803,214.4788582231597
1558054312611,,,,215.26820952515976
1558054312655,-0.9279999732971191,-3.322999954223633,1.1770000457763672,81.52112178204021
1558054312677,,,,79.25262471338226
1558054312742,-3.9070000648498535,-2.5280001163482666,0.8140000104904175,106.35752009490415
1558054312808,2.930000066757202,6.894999980926514,2.700000047683716,61.68705156445611
1558054312873,2.010999917984009,,,
1558054312874,,32.58100128173828,1.3880000114440918,33.251625087331945
1558054312919,6.377999782562256,14.317000389099121,1.4259999990463257,17.070159037857593
1558054312951,,,,17.328343603578674
1558054312985,2.9590001106262207,5.4679999351501465,-1.0820000171661377,317.1567300159354
1558054313017,,,,315.4469321761007
1558054313051,-0.6890000104904175,-8.560999870300293,2.3269999027252197,89.5504667740646
1558054313084,,,,91.85095644879493
1558054313117,-4.01200008392334,-0.0860000029206276,1.1579999923706055,157.49416286354915
1558054313162,,,,157.10182313724528
1558054313182,3.5239999294281006,16.1560001373291,0.32499998807907104,358.88437376299964
1558054313214,,,,356.70982765392245
1558054313250,8.130000114440918,30.07200050354004,-2.565999984741211,324.9194927246542
1558054313280,,,,322.9643783954947
1558054313348,-5.104000091552734,8.197999954223633,2.6519999504089355,153.6304204727213
1558054313382,-5.256999969482422,1.4259999990463257,1.3880000114440918,160.7815738922113
1558054313417,,,,162.08156379693983
1558054313452,-5.007999897003174,-4.423999786376953,,
1558054313453,,,4.913000106811523,123.42203739650733
1558054313463,,,,124.78931832493882
1558054313513,7.451000213623047,8.503999710083008,,
1558054313514,,,1.0049999952316284,22.66396614733486
1558054313547,,,,51.207000547285304
1558054313582,-3.447000026702881,,,
1558054313583,,20.801000595092773,8.236000061035156,126.48196214467305
1558054313593,,,,126.5793196611024
1558054313653,6.340000152587891,23.5310001373291,1.1299999952316284,7.8264952038641695
1558054313659,,,,6.7173676784156555
1558054313724,3.505000114440918,2.9010000228881836,-1.090999960899353,235.88244444031028
1558054313726,,,,238.00656497029252
1558054313795,0.9570000171661377,-4.491000175476074,2.7860000133514404,136.34979598577894
1558054313800,0.8230000138282776,-4.232999801635742,3.3320000171661377,136.30102843510502
1558054313830,-0.9480000138282776,-2.5280001163482666,3.3610000610351562,128.40344462235936
1558054313866,-1.1299999952316284,0.7080000042915344,1.684999942779541,141.54726941583516
1558054313901,0.7749999761581421,5.085000038146973,-0.2770000100135803,
1558054313902,,,,323.7801078880693
1558054313949,3.7920000553131104,12.755999565124512,2.0390000343322754,28.136354691484087
1558054313960,9.510000228881836,27.006999969482422,7.51800012588501,47.42183606776388
1558054313995,8.88700008392334,30.20599937438965,3.390000104904175,13.441558715812164
1558054314006,6.742000102996826,25.1200008392334,-2.2690000534057617,316.541439254744
1558054314044,6.204999923706055,19.891000747680664,0.1340000033378601,342.18715522009916
1558054314056,,,,79.16497972595266
1558054314057,-1.9630000591278076,10.40999984741211,-0.11400000005960464,172.10681983803616
1558054314092,-2.499000072479248,5.745999813079834,-0.04699999839067459,171.18273622446844
1558054314097,-8.685999870300293,1.034000039100647,1.465000033378601,160.04413202790337
1558054314128,-7.230000019073486,-3.063999891281128,-0.8899999856948853,168.67296955356892
1558054314129,,,,173.23679267394473
1558054314164,-4.940999984741211,-5.89900016784668,-1.9919999837875366,293.8865214005121
1558054314200,0.0860000029206276,-3.2269999980926514,4.4720001220703125,132.17696021425132
1558054314245,-1.36899995803833,0.4880000054836273,,
1558054314246,,,0.7179999947547913,153.80636614574084
1558054314255,,,,126.40849662996038
1558054314293,0.23899999260902405,7.019999980926514,4.500999927520752,113.26856504431152
1558054314303,-6.51200008392334,19.652000427246094,7.718999862670898,139.5570479143418
1558054314342,-6.617000102996826,26.42300033569336,3.2269999980926514,
1558054314343,,,2.4130001068115234,154.17210911541667
1558054314377,4.318999767303467,32.207000732421875,0.7850000262260437,7.147521039512014
1558054314411,,,,54.32835943194067
1558054314412,1.340000033378601,11.204999923706055,2.4509999752044678,72.99065947099035
1558054314422,2.431999921798706,,,
1558054314423,,7.431000232696533,-0.01899999938905239,352.50538710300134
1558054314458,2.9590001106262207,4.386000156402588,-0.621999979019165,300.61872467669184
1558054314477,3.312999963760376,-1.6660000085830688,-0.8899999856948853,193.56480532420233
1558054314503,2.632999897003174,-3.0739998817443848,,
1558054314504,,,-0.0860000029206276,184.83541375357584
1558054314538,1.4739999771118164,-3.4760000705718994,1.2059999704360962,156.56656853274805
1558054314573,-2.316999912261963,-5.296000003814697,3.5329999923706055,114.97475995935906
1558054314607,-2.747999906539917,-1.350000023841858,1.5130000114440918,143.97764196782245
1558054314642,7.958000183105469,11.204999923706055,,
1558054314643,,13.416999816894531,1.5219999551773071,15.03922448626912
1558054314653,,,,50.320356615653
1558054314687,1.2920000553131104,15.218000411987305,9.777999877929688,
1558054314688,,,,112.15916473818302
1558054314698,2.98799991607666,32.9640007019043,1.656000018119812,18.313823787595652
1558054314733,9.711000442504883,29.42099952697754,1.225000023841858,15.302203844787527
1558054314744,3.9260001182556152,23.933000564575195,0.7749999761581421,354.29908826726097
1558054314781,0.4020000100135803,16.079999923706055,6.185999870300293,97.55275738678654
1558054314829,-6.550000190734863,8.675999641418457,-0.04699999839067459,169.13109766195836
1558054314841,-4.193999767303467,1.3209999799728394,-1.340000033378601,180.6723588129397
1558054314877,-2.8440001010894775,-0.45899999141693115,-0.1340000033378601,180.7455921012206
1558054314924,-2.940000057220459,-4.491000175476074,5.486999988555908,
1558054314925,,,4.89300012588501,129.58232161272522
1558054314971,-3.188999891281128,-1.034000039100647,4.940999984741211,138.46763274172477
1558054314982,1.6660000085830688,3.265000104904175,3.8499999046325684,123.72574858814113
1558054315018,2.9110000133514404,9.42300033569336,4.367000102996826,82.24387190944344
1558054315066,-3.0450000762939453,19.53700065612793,7.239999771118164,119.54739402376416
1558054315113,-0.7940000295639038,33.17499923706055,2.930000066757202,96.6363645662243
1558054315123,0.8040000200271606,18.493000030517578,5.7170000076293945,88.58338711967167
1558054315161,3.0260000228881836,13.743000030517578,2.000999927520752,26.646051810816914
1558054315208,4.3379998207092285,,,
1558054315209,2.5850000381469727,4.921999931335449,-2.115999937057495,244.96208811157499
1558054315220,2.3459999561309814,-1.5609999895095825,0.24899999797344208,186.649580299023
1558054315237,1.7519999742507935,-4.40500020980835,0.8899999856948853,172.63809927243642
1558054315243,,,,173.66684870484542
1558054315258,-0.33500000834465027,-4.8460001945495605,1.9919999837875366,121.72114270825574
1558054315292,-1.3980000019073486,-4.442999839782715,3.0260000228881836,123.13269692288725
1558054315297,-1.340000033378601,-1.8480000495910645,4.4720001220703125,139.24296849554796
1558054315328,-1.1970000267028809,-1.7430000305175781,0.9959999918937683,139.62108776799985
1558054315366,-1.6660000085830688,1.2059999704360962,1.5889999866485596,145.87409863238986
1558054315402,3.2750000953674316,7.269000053405762,4.261000156402588,105.74219518276686
1558054315417,3.121999979019165,24.450000762939453,7.125,67.29029287272442
1558054315450,7.182000160217285,30.6560001373291,1.5509999990463257,347.3295517122357
1558054315487,8.819999694824219,30.62700080871582,3.5910000801086426,1.0381915286062622
1558054315522,2.2880001068115234,21.566999435424805,3.303999900817871,42.722935711267326
1558054315558,-3.5429999828338623,8.982999801635742,-0.1809999942779541,167.1877312581713
1558054315594,-4.940999984741211,3.8499999046325684,1.6369999647140503,173.7273231997567
1558054315603,-5.448999881744385,-1.9049999713897705,1.7999999523162842,143.67461379510567
1558054315617,-3.9839999675750732,-5.697999954223633,-0.14300000667572021,
1558054315644,-2.2790000438690186,-6.501999855041504,2.815000057220459,102.34695595767772
1558054315682,-1.6469999551773071,-6.377999782562256,4.683000087738037,120.0120381326218
1558054315720,-2.930000066757202,,,
1558054315721,-4.96999979019165,-1.8669999837875366,1.9819999933242798,131.22999546696408
1558054315759,-2.5950000286102295,5.775000095367432,8.303000450134277,134.5310805343446
1558054315798,2.068000078201294,28.214000701904297,11.33899974822998,122.86043192219222
1558054315850,3.936000108718872,33.72999954223633,0.01899999938905239,351.9211156459255
1558054315862,1.3589999675750732,19.268999099731445,1.465000033378601,45.23298241992279
1558054315890,3.2170000076293945,15.361000061035156,1.5410000085830688,25.6209360390464
1558054315901,4.175000190734863,8.791000366210938,0.9380000233650208,13.934988656926805
1558054315944,4.625,5.229000091552734,-2.815000057220459,12.893357487743174
1558054315985,3.1019999980926514,-2.059000015258789,-2.115999937057495,207.1089748256893
1558054315997,-0.20100000500679016,-4.3379998207092285,3.628999948501587,126.89135002314526
1558054316024,-1.1390000581741333,-3.0450000762939453,3.3610000610351562,124.90196180473066
1558054316063,-0.8040000200271606,-1.5130000114440918,2.2309999465942383,126.21159593656728
1558054316064,,,0.04699999839067459,
1558054316102,-1.49399995803833,0.8809999823570251,0.8140000104904175,154.27016331114137
1558054316152,-1.187000036239624,,,
1558054316153,-1.062999963760376,4.059999942779541,8.053999900817871,132.60302741467672
1558054316157,6.348999977111816,27.29400062561035,0.9860000014305115,352.99666596141424
1558054316167,,,,348.45049503806155
1558054316203,14.345999717712402,31.038999557495117,-7.144000053405762,283.58632975475524
1558054316228,6.329999923706055,24.066999435424805,1.0049999952316284,348.1375955344468
1558054316266,3.8970000743865967,21.298999786376953,0.3160000145435333,347.86208534012235
1558054316278,-3.9639999866485596,10.611000061035156,0.8610000014305115,156.69721639119206
1558054316322,-3.8499999046325684,,,
1558054316323,-4.145999908447266,5.831999778747559,-0.05700000002980232,167.77892511197095
1558054316362,-5.966000080108643,-0.4690000116825104,1.340000033378601,151.47206703461893
1558054316401,-4.251999855041504,,,109.54215726712513
1558054316402,,-5.50600004196167,3.8299999237060547,
1558054316449,-3.562000036239624,-1.9819999933242798,3.9070000648498535,129.1292478443216
1558054316460,0.7179999947547913,-0.02800000086426735,2.115999937057495,137.48030157644277
1558054316499,2.0390000343322754,3.6480000019073486,3.552999973297119,108.85566861402549
1558054316536,2.499000072479248,21.423999786376953,2.3940000534057617,39.587240259544046
1558054316573,-3.4189999103546143,,,
1558054316574,-3.13100004196167,25.014999389648438,1.503000020980835,149.9334713014252
1558054316584,8.083000183105469,39.04600143432617,-1.5889999866485596,334.6083465812018
1558054316621,7.709000110626221,,,
1558054316622,5.142000198364258,25.493999481201172,2.739000082015991,15.878962093776352
1558054316633,,,,347.9412976052479
1558054316636,5.63100004196167,8.9350004196167,,
1558054316637,,,-2.183000087738037,291.2254865300643
1558054316671,4.999000072479248,6.091000080108643,-2.3359999656677246,268.8952143972723
1558054316709,4.442999839782715,1.1299999952316284,-0.14300000667572021,195.82274292040347
1558054316717,1.090999960899353,-3.562000036239624,1.2450000047683716,149.50056025145145
1558054316748,-0.5450000166893005,-3.2269999980926514,2.000999927520752,112.42035117204432
1558054316785,-0.5070000290870667,-5.572999954223633,3.13100004196167,114.49525335886747
1558054316823,-2.5850000381469727,-3.447000026702881,1.809999942779541,99.34815457239449
1558054316833,,,,143.7392000638973
1558054316837,-1.1200000047683716,3.687000036239624,1.7230000495910645,128.5274398765518
1558054316872,1.0429999828338623,5.229000091552734,4.078999996185303,104.14304299239177
1558054316911,5.372000217437744,13.178000450134277,0.20100000500679016,340.9649184813348
1558054316917,9.366000175476074,27.773000717163086,10.102999687194824,55.47950585427628
1558054316949,20.361000061035156,37.130001068115234,1.6369999647140503,335.4840400120472
1558054316988,11.885000228881836,26.729000091552734,1.6180000305175781,345.45833259665153
1558054316997,-2.365000009536743,14.32699966430664,6.2729997634887695,113.27115368600695
1558054317027,-4.730999946594238,9.031000137329102,-0.2290000021457672,169.04798792013764
1558054317067,-4.48199987411499,,,
1558054317068,-5.410999774932861,5.23799991607666,-2.2119998931884766,188.07998583576364
1558054317106,-5.802999973297119,-0.4779999852180481,1.8380000591278076,144.87865320237384
1558054317117,-3.802000045776367,-5.181000232696533,2.2309999465942383,89.86117890959764
1558054317156,-3.1019999980926514,-4.089000225067139,2.872999906539917,104.92574852032942
1558054317157,-3.3519999980926514,-2.5950000286102295,1.9529999494552612,113.61947967329928
1558054317158,,,,114.3397231212771
1558054317253,0.7179999947547913,5.861000061035156,6.73199987411499,115.86533466485866
1558054317334,0.33500000834465027,34.611000061035156,3.2939999103546143,80.36807656711534
1558054317374,1.9249999523162842,16.46299934387207,3.763000011444092,68.62476157238319
1558054317455,1.531999945640564,3.3989999294281006,-1.6180000305175781,267.5829574727944
1558054317486,0.32499998807907104,-6.204999923706055,,
1558054317487,,,2.490000009536743,122.90187751007585
1558054317488,,,,124.45540403679524
1558054317590,-0.6510000228881836,0.44999998807907104,0.5070000290870667,126.83172247169105
1558054317630,4.021999835968018,17.47800064086914,10.869999885559082,98.73051422612855
1558054317710,4.48199987411499,27.812000274658203,5.955999851226807,51.05165472480252
1558054317754,-3.619999885559082,9.586000442504883,1.0429999828338623,154.33110225891625
1558054317789,,,,153.97649249758751
1558054317831,-2.010999917984009,-0.9190000295639038,1.2640000581741333,132.08335930186547
1558054317914,-4.3379998207092285,-4.605999946594238,3.4089999198913574,114.68801495762358
1558054317956,1.6950000524520874,4.184999942779541,4.913000106811523,115.92142417832281
1558054318015,-3.0450000762939453,28.84600067138672,5.142000198364258,117.04402040992778
1558054318048,,,,117.29903235277936
1558054318099,2.059000015258789,20.139999389648438,2.384000062942505,42.18026693642605
1558054318147,3.312999963760376,2.940000057220459,-1.7330000400543213,244.73796228415023
1558054318179,,,,244.1049949933868
1558054318219,0.257999986410141,-4.510000228881836,1.090999960899353,128.5795268991623
1558054318299,-1.2730000019073486,0.8330000042915344,1.809999942779541,138.16674924840737
1558054318381,1.6369999647140503,6.8379998207092285,8.303000450134277,119.36004193483069
1558054318422,6.204999923706055,30.62700080871582,6.1579999923706055,
1558054318423,,,,33.469935008678476
1558054318503,-2.3550000190734863,11.970999717712402,2.9779999256134033,120.11925844221264
1558054318543,-2.5850000381469727,2.316999912261963,0.9480000138282776,151.20945992141029
1558054318545,,,,152.34435049352126
1558054318626,-2.134999990463257,-5.381999969482422,5.1519999504089355,124.4594884899189
1558054318706,0.5929999947547913,1.3980000019073486,2.4700000286102295,125.62122170546803
1558054318749,-2.757999897003174,12.670000076293945,6.914000034332275,120.32975121205408
1558054318832,1.465000033378601,33.202999114990234,-2.4509999752044678,281.81899781644694
1558054318886,5.706999778747559,8.10200023651123,4.051000118255615,81.97001547467181
1558054318944,3.993000030517578,-5.323999881744385,,
1558054318945,,,-1.8960000276565552,206.64527328293707
1558054319030,-1.8960000276565552,-3.505000114440918,8.762999534606934,133.30387312541174
1558054319089,2.546999931335449,7.901000022888184,3.802000045776367,77.65054237185319
1558054319143,19.996999740600586,39.38999938964844,2.815000057220459,338.50503609703844
1558054319241,-5.736000061035156,15.083999633789062,6.2729997634887695,132.58095224327926
1558054319283,-1.1770000457763672,0.5260000228881836,-0.7559999823570251,190.40925792765643
1558054319368,-4.758999824523926,-6.7230000495910645,3.9070000648498535,108.79472283606145
1558054319411,1.6950000524520874,2.7190001010894775,6.340000152587891,
1558054319412,,,,130.99735922383346
1558054319499,-3.7060000896453857,21.54800033569336,6.761000156402588,119.27821626857394
1558054319542,0.9480000138282776,21.68199920654297,6.301000118255615,83.55194875814931
1558054319627,1.531999945640564,6.73199987411499,1.4739999771118164,40.817067046023624
1558054319681,0.9570000171661377,-7.804999828338623,1.0149999856948853,156.07125687451708
1558054319735,0.3919999897480011,0.4880000054836273,1.6950000524520874,137.6225607564758
1558054319819,2.8919999599456787,3.628999948501587,4.769000053405762,128.90637877170408
1558054319902,8.71500015258789,32.35100173950195,-0.5740000009536743,316.8967491104626
1558054319944,0.6600000262260437,17.315000534057617,4.175000190734863,65.1780090605738
1558054320029,-3.5910000801086426,4.01200008392334,0.640999972820282,152.7584785232775
1558054320072,-2.3459999561309814,-5.775000095367432,1.2350000143051147,77.98173141451798
1558054320160,-1.7519999742507935,,,
1558054320161,,0.5070000290870667,2.499000072479248,132.69207942107536
1558054320214,4.539000034332275,8.819999694824219,1.0529999732971191,348.43950099481873
1558054320267,-3.1600000858306885,39.22800064086914,3.111999988555908,124.40195097635072
1558054320350,5.0370001792907715,9.097999572753906,2.125999927520752,23.097930753988066
1558054320393,1.9149999618530273,-3.6480000019073486,-0.5550000071525574,201.86972795866927
1558054320482,0.37299999594688416,,,
1558054320483,,-2.9779999256134033,4.855000019073486,133.66400167958983
1558054320537,-0.4300000071525574,2.8440001010894775,0.7080000042915344,121.12242198599074
1558054320596,5.285999774932861,24.527000427246094,3.763000011444092,29.558955029550816
1558054320686,6.071000099182129,25.139999389648438,,
1558054320687,,,0.8999999761581421,351.5398527789081
1558054320731,-2.7290000915527344,8.906000137329102,-0.3440000116825104,174.26571969127212
1558054320820,-2.7290000915527344,-4.788000106811523,,
1558054320821,,,-0.6600000262260437,357.8467429502355
1558054320865,-3.753999948501587,-3.390000104904175,3.188999891281128,116.78384484406365
1558054320921,2.9590001106262207,7.690000057220459,4.625,90.45150532937271
1558054320984,-0.4300000071525574,,,
1558054320985,,36.297000885009766,-0.5170000195503235,222.80618387810426
1558054321026,,,,223.40655750614837
1558054321080,2.9210000038146973,,,
1558054321081,,13.857999801635742,2.9590001106262207,53.5786505478834
1558054321126,3.821000099182129,-0.6890000104904175,-2.0299999713897705,207.29104034820512
1558054321216,-0.4880000054836273,-4.788000106811523,2.9489998817443848,116.42281470491511
1558054321262,0.11400000005960464,2.815000057220459,-0.5929999947547913,259.92329646959695
1558054321315,3.427999973297119,11.4350004196167,3.9839999675750732,64.78428963605757
1558054321380,7.785999774932861,,,
1558054321381,,34.53499984741211,-1.4259999990463257,328.9548914297028
1558054321382,,,,327.70428379267344
1558054321473,-5.0370001792907715,,,
1558054321474,,9.480999946594238,0.5740000009536743,164.43487815471104
1558054321516,-1.4359999895095825,-2.010999917984009,1.6080000400543213,113.73911043661204
1558054321603,-4.2230000495910645,-5.97599983215332,4.864999771118164,112.55039114365218
1558054321647,2.5369999408721924,3.9070000648498535,5.486999988555908,120.26934501903452
1558054321733,-1.034000039100647,30.88599967956543,-2.881999969482422,238.70220607687997
1558054321788,3.763000011444092,20.312999725341797,,
1558054321789,,,,33.80025320222404
1558054321876,3.5429999828338623,0.746999979019165,-1.3209999799728394,210.96335985735413
1558054321931,-0.7749999761581421,-4.644000053405762,2.700000047683716,110.72330188029542
1558054321932,,,,112.43163464455318
1558054321996,-1.0049999952316284,0.07599999755620956,-0.9480000138282776,208.52472277647115
1558054322043,1.465000033378601,14.25,10.008000373840332,204.71045827599096
1558054322136,9.307999610900879,29.458999633789062,-3.2750000953674316,309.6358618717672
1558054322183,-3.3420000076293945,11.300999641418457,2.930000066757202,134.29564391365426
1558054322276,-1.8960000276565552,0.32499998807907104,-0.9480000138282776,188.0211915673882
1558054322336,-5.085000038146973,-5.5929999351501465,5.620999813079834,118.86176597449992
1558054322337,,,,118.70150241581476
1558054322382,1.628000020980835,4.232999801635742,0.640999972820282,
1558054322383,,,,10.926258737911269
1558054322439,-0.5929999947547913,15.486000061035156,3.063999891281128,98.04804855445002
1558054322502,4.539000034332275,37.36000061035156,,
1558054322503,,,-2.0490000247955322,
1558054322504,,,,317.001520797236
1558054322588,4.261000156402588,5.343999862670898,0.6600000262260437,326.9509275875994
1558054322636,-0.14300000667572021,-7.679999828338623,0.5740000009536743,95.04403573483006
1558054322637,,,,95.99414236913549
1558054322730,-1.6369999647140503,-1.5509999990463257,2.4130001068115234,128.75896962903687
1558054322792,3.246000051498413,6.1579999923706055,4.394999980926514,98.39255646599634
1558054322848,10.515000343322754,32.86800003051758,0.4880000054836273,333.7403114999632
1558054322898,-2.3269999027252197,15.189000129699707,2.996999979019165,119.16747158137139
1558054322899,,,,119.29385740177327
1558054322983,-1.7710000276565552,4.874000072479248,0.45899999141693115,153.10710503889328
1558054323074,0.008999999612569809,-5.947000026702881,4.883999824523926,130.65617761441297
1558054323119,-5.745999813079834,-2.3550000190734863,0.4020000100135803,146.57458917328802
1558054323165,2.010999917984009,14.029999732971191,6.961999893188477,89.98250355982458
1558054323229,,,,93.27824741927418
1558054323236,1.1579999923706055,,,
1558054323237,,40.58700180053711,-1.406999945640564,297.1336957847737
1558054323315,1.5509999990463257,10.803000450134277,0.9279999732971191,24.981683266699292
1558054323405,3.427999973297119,-3.0350000858306885,0.0,187.14512418368577
1558054323452,-0.05700000002980232,-4.730999946594238,5.315000057220459,130.77865656660964
1558054323498,0.1340000033378601,4.625,2.078000068664551,100.31431215124945
1558054323558,10.418999671936035,27.073999404907227,,
1558054323560,,,2.000999927520752,354.6973271425736
1558054323647,1.034000039100647,19.39299964904785,6.501999855041504,86.7934131042648
1558054323695,-6.043000221252441,3.821000099182129,0.9279999732971191,163.37181385191192
1558054323744,,,,164.10635971601175
1558054323793,-0.28700000047683716,-3.821000099182129,1.8960000276565552,117.12673400077662
1558054323851,-3.0929999351501465,-0.6510000228881836,1.8860000371932983,140.16113716529443
1558054323912,1.187000036239624,10.170000076293945,8.9350004196167,114.02806158944941
1558054323960,2.4509999752044678,31.07699966430664,6.914000034332275,75.26664925716784
1558054324057,0.4300000071525574,14.135000228881836,1.9819999933242798,77.79928340140862
1558054324106,3.5810000896453857,-0.6600000262260437,-1.2730000019073486,202.29886874422118
1558054324154,-0.37299999594688416,-7.086999893188477,3.6480000019073486,119.08408863198383
1558054324227,2.1059999465942383,3.505000114440918,1.503000020980835,75.6940893256164
1558054324285,1.312000036239624,24.450000762939453,5.6020002365112305,75.8253860520316
1558054324382,5.0370001792907715,26.393999099731445,2.872999906539917,14.772843693544019
1558054324431,-1.7039999961853027,8.878000259399414,0.06700000166893005,161.81052823029538
1558054324492,-1.7519999742507935,-3.3989999294281006,-0.9480000138282776,163.71947048066556
1558054324549,-2.3550000190734863,-2.8440001010894775,4.078999996185303,127.62603249102852
1558054324550,,,,126.73191974753883
1558054324615,2.5179998874664307,5.50600004196167,5.123000144958496,109.30603762751781
1558054324616,,,,109.41021167273882
1558054324681,-2.0869998931884766,31.02899932861328,3.86899995803833,
1558054324682,,,,112.42279637976719
1558054324746,4.453000068664551,16.079999923706055,,
1558054324747,,,1.7710000276565552,14.278249205175882
1558054324834,3.0739998817443848,1.6950000524520874,-0.2290000021457672,215.21501601190369
1558054324881,0.33500000834465027,-6.445000171661377,3.2750000953674316,126.71939318060103
1558054324946,-1.0049999952316284,,,
1558054324947,,1.49399995803833,0.29600000381469727,158.9538562514509
1558054325010,4.797999858856201,8.9350004196167,5.229000091552734,
1558054325011,,,,84.83206964258227
1558054325012,,,,82.13413126004889
1558054325104,11.368000030517578,36.95800018310547,,
1558054325105,,,0.7179999947547913,341.0789689800957
1558054325151,-3.9739999771118164,12.583999633789062,3.2750000953674316,136.22563680704644
1558054325246,-0.3919999897480011,0.9760000109672546,-2.441999912261963,221.43100725099225
1558054325306,-1.7430000305175781,-6.8379998207092285,4.797999858856201,115.30020481293181
1558054325369,-1.1009999513626099,2.441999912261963,3.7060000896453857,129.00708308082676
1558054325419,-1.4170000553131104,20.656999588012695,4.855000019073486,107.4964473088146
1558054325479,,,,109.34383589438465
1558054325480,4.491000175476074,26.06800079345703,0.20999999344348907,
1558054325540,3.1700000762939453,6.196000099182129,0.6700000166893005,7.039202777012065
1558054325605,-0.02800000086426735,-5.458000183105469,,
1558054325606,,,2.068000078201294,115.04840305899012
1558054325607,,,,116.29224880874114
1558054325702,-0.4300000071525574,-2.125999927520752,3.2079999446868896,128.59484018328146
1558054325752,3.1019999980926514,3.7249999046325684,5.2769999504089355,120.18715052256258
1558054325852,9.701000213623047,27.610000610351562,3.3610000610351562,6.885243909817632
1558054325916,1.378999948501587,18.905000686645508,0.0860000029206276,345.8426673412481
1558054325981,-3.572000026702881,6.7129998207092285,-0.4020000100135803,172.14292421798885
1558054326032,-2.010999917984009,-6.348999977111816,4.683000087738037,113.0526900854041
1558054326083,-1.7999999523162842,0.4690000116825104,1.6180000305175781,139.14158116750826
1558054326142,2.0390000343322754,17.009000778198242,7.010000228881836,85.91057700309477
1558054326202,2.5179998874664307,35.63600158691406,-0.12399999797344208,348.32137799576526
1558054326302,2.2209999561309814,,,
1558054326303,,10.256999969482422,1.656000018119812,39.50982348039656
1558054326351,3.197999954223633,-5.7170000076293945,-0.3540000021457672,
1558054326352,,,,190.0496211470986
1558054326400,3.063999891281128,-3.8399999141693115,3.3420000076293945,
1558054326401,,,,152.24447946747733
1558054326498,-1.3880000114440918,3.8589999675750732,,
1558054326499,,,0.9959999918937683,145.28065081616413
1558054326562,4.040999889373779,23.673999786376953,7.479000091552734,68.45240174867791
1558054326610,6.464000225067139,27.638999938964844,2.010999917984009,3.263155532815574
1558054326669,-5.2769999504089355,8.819999694824219,-0.6510000228881836,3.112305468910563
1558054326728,-2.240999937057495,-2.7769999504089355,-0.2770000100135803,33.68324523155252
1558054326832,-1.819000005722046,,,
1558054326833,,-1.9630000591278076,3.111999988555908,123.26234757371242
1558054326883,3.7920000553131104,,,
1558054326884,,2.9110000133514404,7.105999946594238,128.05089757816
1558054326937,-6.51200008392334,27.70599937438965,9.385000228881836,128.76230276135183
1558054326991,5.745999813079834,14.565999984741211,1.6369999647140503,11.234891080842033
1558054327000,,,,11.336293776807338
1558054327103,2.6429998874664307,2.3269999027252197,-2.3269999027252197,241.1520036868668
1558054327155,-1.4550000429153442,-8.293000221252441,3.322999954223633,99.19338931599111
1558054327208,-1.781000018119812,2.384000062942505,0.3540000021457672,162.5576279820897
1558054327260,2.7100000381469727,13.991999626159668,5.831999778747559,74.96459780150235
1558054327323,8.121000289916992,34.027000427246094,7.699999809265137,36.54976975827475
1558054327377,,,,34.00651808496923
1558054327387,-1.378999948501587,11.223999977111816,1.6369999647140503,118.34263061644396
1558054327388,,,,118.43983786871155
1558054327452,-3.1700000762939453,,,
1558054327453,,-1.1009999513626099,-0.8140000104904175,169.8719136397163
1558054327521,-2.4130001068115234,,,
1558054327522,,-5.8420000076293945,5.6020002365112305,117.79632476586966
1558054327568,,,,116.83164250787539
1558054327585,-1.2059999704360962,,,
1558054327586,,5.553999900817871,5.545000076293945,118.98417662480489
1558054327662,3.4760000705718994,27.226999282836914,7.125,64.49605565308303
1558054327763,-0.5450000166893005,24.775999069213867,6.434999942779541,95.66459940206073
1558054327816,2.2209999561309814,5.6020002365112305,-0.4020000100135803,323.68540390013254
1558054327867,0.5170000195503235,-7.767000198364258,1.1579999923706055,132.16711108146816
1558054327917,0.6320000290870667,-0.8040000200271606,3.303999900817871,138.3484596010864
1558054328019,5.908999919891357,3.3519999980926514,4.13700008392334,145.0008179658687
1558054328069,8.734000205993652,35.654998779296875,6.493000030517578,27.360346164027703
1558054328121,2.9489998817443848,17.94700050354004,4.031000137329102,46.80362198560766
1558054328182,-3.9170000553131104,3.5139999389648438,0.6700000166893005,159.505216442011
1558054328244,-1.809999942779541,,,
1558054328245,,-6.51200008392334,1.0429999828338623,62.232783679140084
1558054328246,,,,58.7322639181844
1558054328310,-4.769000053405762,-0.2770000100135803,,
1558054328311,,,3.687000036239624,138.0885982239241
1558054328417,4.616000175476074,5.553999900817871,0.6890000104904175,350.1753884497356
1558054328467,-2.0390000343322754,,,
1558054328468,,36.72800064086914,2.375,126.05282135912114
1558054328521,5.89900016784668,13.312000274658203,3.4089999198913574,45.35512669285015
1558054328575,1.2059999704360962,-2.0490000247955322,-0.16200000047683716,190.09733684864034
1558054328629,,,,190.3989580023881
1558054328682,-1.3880000114440918,-4.951000213623047,2.5369999408721924,99.8052854731651
1558054328746,-3.6010000705718994,1.4170000553131104,,
1558054328747,,,2.9489998817443848,147.04365924472782
1558054328811,1.781000018119812,17.89900016784668,8.829999923706055,96.71872981742547
1558054328865,13.27299976348877,27.170000076293945,-1.809999942779541,315.4401702888224
1558054328919,-8.513999938964844,10.227999687194824,3.3420000076293945,153.74914282087445
1558054328984,-1.7430000305175781,-0.4300000071525574,-0.2290000021457672,167.63516329032052
1558054329049,-2.8340001106262207,-5.448999881744385,5.142000198364258,118.08539203192294
1558054329115,2.9489998817443848,7.431000232696533,7.374000072479248,109.81923072099585
1558054329222,1.062999963760376,28.319000244140625,1.5509999990463257,111.54815650560118
1558054329235,3.878000020980835,,,
1558054329236,,14.67199993133545,4.375999927520752,59.0450797519818
1558054329302,3.3989999294281006,,,
1558054329304,,0.7179999947547913,0.3630000054836273,184.53992610970272
1558054329309,,,,184.1119737770664
1558054329382,0.5740000009536743,-6.90500020980835,1.1579999923706055,132.19156315869682
1558054329434,-3.121999979019165,1.7519999742507935,4.548999786376953,137.99898614201354
1558054329486,,,,137.72039638614706
1558054329539,4.48199987411499,6.348999977111816,4.01200008392334,92.01833023440611
1558054329607,11.673999786376953,38.691001892089844,-5.745999813079834,304.9015777202754
1558054329672,-2.4230000972747803,13.866999626159668,4.35699987411499,119.957369298505
1558054329724,-2.671999931335449,3.063999891281128,1.2730000019073486,152.24475267504414
1558054329778,-1.2059999704360962,,,
1558054329846,-5.372000217437744,-0.7850000262260437,3.447000026702881,139.5244542516225
1558054329907,3.427999973297119,17.764999389648438,0.1340000033378601,355.7937611883365
1558054329968,-2.9010000228881836,35.483001708984375,-1.7230000495910645,204.8865542131722
1558054330074,5.458000183105469,,,
1558054330075,,7.814000129699707,-0.29600000381469727,341.3309602717868
1558054330129,2.7960000038146973,-5.410999774932861,1.9249999523162842,156.1401051813508
1558054330185,2.115999937057495,,,
1558054330186,,-4.232999801635742,3.3320000171661377,142.35151053022582
1558054330242,2.8440001010894775,6.252999782562256,3.0739998817443848,82.58485544337805
1558054330311,8.59000015258789,28.961000442504883,2.0390000343322754,8.096023860022967
1558054330380,0.1720000058412552,18.100000381469727,3.447000026702881,87.57354365088531
1558054330447,-3.236999988555908,8.991999626159668,0.01899999938905239,171.35727487851895
1558054330523,-2.1449999809265137,-5.611999988555908,1.2350000143051147,60.70400975797281
1558054330580,-3.609999895095825,0.2770000100135803,1.5130000114440918,
1558054330581,,,,150.6588920327939
1558054330641,2.193000078201294,11.347999572753906,6.894999980926514,97.70166917107122
1558054330710,-1.1770000457763672,37.58000183105469,1.1200000047683716,131.34449675821017
1558054330778,3.677000045776367,10.276000022888184,0.2290000021457672,354.5271918261036
1558054330779,,,,354.08258194274214
1558054330835,1.7230000495910645,-2.930000066757202,0.2770000100135803,178.6037367576873
1558054330891,-1.090999960899353,-3.936000108718872,3.7820000648498535,119.92198891860434
1558054330960,1.5989999771118164,4.270999908447266,2.4230000972747803,123.14598847101212
1558054331025,3.2170000076293945,14.595000267028809,8.388999938964844,91.0494679006398
1558054331085,6.493000030517578,28.472000122070312,1.2640000581741333,352.91512204046074
1558054331149,-3.734999895095825,7.2210001945495605,-0.29600000381469727,170.27067374383998
1558054331150,,,,170.5780185961122
1558054331248,-2.4700000286102295,-2.4700000286102295,0.37299999594688416,87.44396813214098
1558054331305,-2.509000062942505,-3.1410000324249268,3.4089999198913574,116.53754822259299
1558054331362,2.4700000286102295,3.303999900817871,7.671000003814697,124.29202591184855
1558054331419,-2.556999921798706,,,
1558054331420,,35.03300094604492,0.6890000104904175,154.99458683489127
1558054331531,3.9070000648498535,,,
1558054331532,,21.08799934387207,2.3269999027252197,25.366062407525476
1558054331545,1.9630000591278076,3.0160000324249268,-0.6600000262260437,293.3986341579089
1558054331605,,,,292.0008905857792
1558054331618,0.1340000033378601,-7.315999984741211,3.993000030517578,123.0924397879192
1558054331688,-1.36899995803833,-1.1679999828338623,0.4690000116825104,126.186597444205
1558054331748,4.739999771118164,4.683000087738037,5.697999954223633,121.47293363381749
1558054331819,11.147000312805176,33.222999572753906,1.7999999523162842,346.345987396281
1558054331888,-1.3589999675750732,14.920999526977539,2.375,109.4118372577613
1558054331956,-3.7730000019073486,3.562000036239624,3.0260000228881836,141.18130788010586
1558054332014,-0.04699999839067459,-5.085000038146973,5.085000038146973,129.0920779548584
1558054332073,-2.9489998817443848,-0.4399999976158142,1.5509999990463257,125.21037216651342
1558054332139,2.3550000190734863,14.107000350952148,,
1558054332140,,,5.50600004196167,79.62051919264661
1558054332141,,,,82.39266758051218
1558054332255,1.972000002861023,42.0620002746582,-1.656000018119812,311.3013864254019
1558054332311,2.365000009536743,6.8470001220703125,0.01899999938905239,352.06818327913425
1558054332368,2.3550000190734863,-6.1479997634887695,0.621999979019165,172.4261858232476
1558054332425,0.8230000138282776,-2.259999990463257,2.5759999752044678,136.7198146538752
1558054332483,3.2939999103546143,,,
1558054332484,,4.270999908447266,5.736000061035156,120.48886729895872
1558054332541,7.785999774932861,28.989999771118164,1.7519999742507935,1.0202838398195695
1558054332600,3.0450000762939453,,,
1558054332601,,21.739999771118164,4.193999767303467,49.39288864335157
1558054332602,,,,47.99206124081155
1558054332706,-5.085000038146973,6.013999938964844,-0.4399999976158142,171.85369302739548
1558054332761,-3.0450000762939453,-5.343999862670898,1.062999963760376,66.1905641144607
1558054332814,-2.8529999256134033,-2.9779999256134033,3.734999895095825,119.79237924891419
1558054332869,5.285999774932861,10.055999755859375,6.7129998207092285,88.76789101972122
1558054332977,0.1720000058412552,38.672000885009766,4.423999786376953,
1558054332978,,,,83.67157952146204
1558054333044,4.635000228881836,13.76200008392334,0.32499998807907104,351.581133588478
1558054333110,2.308000087738037,,,
1558054333111,,-1.1490000486373901,-2.499000072479248,218.85073936747983
1558054333166,-0.33500000834465027,-4.539000034332275,2.996999979019165,
1558054333167,,,,120.17741067280613
1558054333221,-2.5759999752044678,,,
1558054333222,,4.193999767303467,2.125999927520752,143.77191667002165
1558054333287,2.068000078201294,16.02199935913086,6.521999835968018,81.5817192203566
1558054333326,10.083999633789062,,,
1558054333328,,35.569000244140625,-1.7999999523162842,319.3441595693345
1558054333392,-4.107999801635742,,,
1558054333393,,5.822000026702881,0.2770000100135803,162.8450969838772
1558054333395,,,,163.61401235988058
1558054333477,-3.3610000610351562,,,
1558054333478,,0.20999999344348907,-0.9760000109672546,177.74790039430636
1558054333568,-1.5700000524520874,-2.614000082015991,4.318999767303467,184.14645257199663
1558054333614,1.5889999866485596,5.142000198364258,6.110000133514404,114.53375513521883
1558054333661,-1.1009999513626099,23.233999252319336,4.453000068664551,103.81005760997533
1558054333753,7.230000019073486,23.444000244140625,-0.11400000005960464,347.17183922920555
1558054333798,1.1009999513626099,0.44999998807907104,1.3209999799728394,135.4373100334219
1558054333891,0.3059999942779541,-6.809000015258789,1.9249999523162842,118.58978784175002
1558054333937,-1.6660000085830688,,,
1558054333938,,-1.1299999952316284,1.1299999952316284,123.64360873318253
1558054334028,3.265000104904175,8.465999603271484,5.7270002365112305,124.44373807369286
1558054334074,16.46299934387207,,,
1558054334075,,35.72200012207031,-1.7710000276565552,321.1756645499897
1558054334120,-0.29600000381469727,12.449999809265137,5.074999809265137,98.01426643881518
1558054334185,-3.9070000648498535,2.7860000133514404,,
1558054334186,,,3.4189999103546143,141.1070227426928
1558054334189,,,,141.28538630267852
1558054334252,-2.115999937057495,-5.0279998779296875,6.004000186920166,123.73114443758544
1558054334340,-2.5950000286102295,2.700000047683716,2.2790000438690186,142.17713580071538
1558054334399,2.4130001068115234,19.259000778198242,4.423999786376953,61.35474920095663
1558054334458,4.461999893188477,30.71299934387207,1.49399995803833,7.704298850744408
1558054334518,2.700000047683716,5.564000129699707,-0.23899999260902405,325.8100947509105
1558054334606,0.2199999988079071,-5.401000022888184,1.7710000276565552,124.38058614462693
1558054334666,0.3160000145435333,-3.5239999294281006,1.8860000371932983,133.1109885832506
1558054334728,3.0450000762939453,7.61299991607666,9.355999946594238,119.11584901162442
1558054334787,15.170000076293945,31.038999557495117,-5.458000183105469,285.8452713887644
1558054334848,-2.8919999599456787,16.232999801635742,2.739000082015991,123.28118523544333
1558054334918,-4.367000102996826,3.802000045776367,-0.29600000381469727,124.78853968337344
1558054334976,-0.9959999918937683,-5.229000091552734,,
1558054334977,,,6.750999927520752,132.1355146263677
1558054334978,,,,130.26368762394736
1558054335043,-6.052000045776367,-0.5649999976158142,2.996999979019165,140.31405144043268
1558054335060,,,,141.70017003059505
1558054335120,2.4130001068115234,25.799999237060547,7.9770002365112305,74.48125263469728
1558054335184,3.3610000610351562,23.893999099731445,2.2119998931884766,22.586078085134602
1558054335247,-1.2640000581741333,6.798999786376953,0.257999986410141,158.12010871984577
1558054335309,1.4459999799728394,-7.498000144958496,0.4300000071525574,177.62428763070747
1558054335373,0.5260000228881836,-2.930000066757202,3.1019999980926514,137.06958864127154
1558054335401,,,,138.8636744305588
1558054335463,3.878000020980835,4.375999927520752,2.9210000038146973,108.08495006808124
1558054335524,4.940999984741211,31.584999084472656,8.244999885559082,55.13084860280924
1558054335589,0.5170000195503235,19.5939998626709,3.2170000076293945,67.88263419830463
1558054335654,-2.441999912261963,2.499000072479248,0.3440000116825104,158.52653229621822
1558054335719,-4.040999889373779,-6.866000175476074,1.9630000591278076,83.35185153622461
1558054335781,-3.619999885559082,-0.5929999947547913,-0.23899999260902405,161.93464642789286
1558054335834,3.3320000171661377,14.145000457763672,,
1558054335835,,,1.1490000486373901,5.904966622400934
1558054335860,,,,7.8977443221911585
1558054335901,-1.406999945640564,41.42100143432617,3.3420000076293945,104.04538494763895
1558054335929,,,,105.47937633369395
1558054335992,3.4189999103546143,8.637999534606934,3.619999885559082,64.81161722292677
1558054336055,1.1390000581741333,-7.239999771118164,1.1200000047683716,151.29142219145044
1558054336116,0.1720000058412552,-3.9070000648498535,2.5759999752044678,126.0175502622472
1558054336179,,,,128.06555516411885
1558054336180,2.384000062942505,4.739999771118164,2.068000078201294,
1558054336241,8.532999992370605,,,
1558054336242,,26.030000686645508,8.734000205993652,54.119936209417745
1558054336304,3.4660000801086426,21.826000213623047,1.684999942779541,13.25943599046201
1558054336367,-2.010999917984009,,,
1558054336368,,8.848999977111816,-1.1200000047683716,192.00259079685873
1558054336430,-2.4700000286102295,-5.267000198364258,1.934000015258789,81.2776733494535
1558054336431,,,,78.26717185012194
1558054336495,-4.3379998207092285,-1.8380000591278076,3.390000104904175,127.52967218221798
1558054336499,,,,128.11541554505993
1558054336561,6.7230000495910645,6.493000030517578,7.355000019073486,112.68696077610659
1558054336627,2.431999921798706,35.83700180053711,13.263999938964844,92.67318145127024
1558054336628,,,,93.67426861754069
1558054336702,10.515000343322754,,,
1558054336703,,12.29699993133545,2.240999937057495,35.9126702030635
1558054336759,1.49399995803833,-1.6369999647140503,-0.4690000116825104,196.55474795413215
1558054336766,,,,197.0762875387759
1558054336847,-0.3160000145435333,-4.874000072479248,2.5369999408721924,110.79212969656166
1558054336890,-0.3160000145435333,1.3309999704360962,,
1558054336891,,,1.1490000486373901,125.19923895816629
1558054336956,5.572999954223633,,,
1558054336957,,15.055000305175781,5.669000148773193,62.47012592260887
1558054337048,10.237000465393066,35.387001037597656,-1.2450000047683716,331.7266453741438
1558054337116,-4.874000072479248,9.164999961853027,-0.4779999852180481,172.6436180652858
1558054337166,-2.193000078201294,-1.7039999961853027,1.6180000305175781,116.90352341870062
1558054337233,-2.125999927520752,-4.251999855041504,3.687000036239624,111.87164792507133
1558054337286,-0.33500000834465027,2.7190001010894775,,
1558054337287,,,5.353000164031982,125.28938379483213
1558054337314,,,,126.43712878296108
1558054337361,-2.1640000343322754,29.47800064086914,3.993000030517578,116.9746530087171
1558054337427,3.312999963760376,,,
1558054337428,,22.36199951171875,-0.8230000138282776,335.4842261347021
1558054337492,1.944000005722046,5.085000038146973,0.7850000262260437,
1558054337493,,,,24.974033454828827
1558054337558,0.0860000029206276,,,
1558054337559,,-8.340999603271484,2.0299999713897705,111.35536758608842
1558054337624,-3.4760000705718994,-2.2980000972747803,0.9190000295639038,127.46202598867819
1558054337625,,,,127.29109367450945
1558054337692,6.004000186920166,8.96399974822998,6.521999835968018,100.42074698908573
1558054337760,10.333000183105469,33.77799987792969,,
1558054337827,-3.246000051498413,16.059999465942383,2.4609999656677246,135.85462093133134
1558054337892,-2.624000072479248,2.546999931335449,2.881999969482422,
1558054337893,,,,139.3646551458009
1558054337947,-1.062999963760376,-2.825000047683716,3.5329999923706055,141.33825196685441
1558054338013,-3.197999954223633,,,
1558054338014,,-2.6519999504089355,2.9010000228881836,120.33887634478523
1558054338079,2.7860000133514404,14.49899959564209,5.123000144958496,75.69432838223736
1558054338081,,,,77.8290493658115
1558054338146,-6.798999786376953,36.74700164794922,7.2210001945495605,135.42201040968106
1558054338147,,,,135.80690522978963
1558054338215,2.5850000381469727,9.366000175476074,-0.1720000058412552,343.76202950306947
1558054338287,1.5219999551773071,-2.2690000534057617,1.6660000085830688,153.7868318047146
1558054338358,1.2350000143051147,-7.785999774932861,1.4259999990463257,147.84938934035753
1558054338429,1.1200000047683716,4.8460001945495605,3.8499999046325684,111.32325886680019
1558054338476,5.802999973297119,26.115999221801758,6.38700008392334,107.76143815804357
1558054338559,3.312999963760376,22.075000762939453,,
1558054338560,,,2.739000082015991,27.3779560992553
1558054338631,-2.4700000286102295,6.071000099182129,-1.062999963760376,183.44825697465967
1558054338672,-2.0390000343322754,,,
1558054338673,,-3.0350000858306885,3.753999948501587,125.08061223266151
1558054338703,,,,122.53470020067431
1558054338738,-3.188999891281128,,,
1558054338739,,-2.5759999752044678,1.8480000495910645,117.20547242152853
1558054338744,,,,115.66443148061191
1558054338810,-0.11400000005960464,7.51800012588501,6.78000020980835,116.25323476820205
1558054338881,5.888999938964844,40.6349983215332,-1.0049999952316284,338.6598781930699
1558054338953,4.367000102996826,14.538000106811523,1.49399995803833,15.048305222770637
1558054339024,0.10499999672174454,1.1100000143051147,,
1558054339025,,,-0.7749999761581421,241.69180719735124
1558054339068,0.3540000021457672,,,
1558054339069,,-7.019999980926514,3.13100004196167,122.96511140141183
1558054339095,,,,124.19245541412809
1558054339134,-2.5280001163482666,,,
1558054339135,,1.6369999647140503,2.9779999256134033,138.75529298880903
1558054339167,,,,137.31570767782378
1558054339204,7.133999824523926,17.89900016784668,8.64799976348877,135.80466492774187
1558054339276,10.534000396728516,33.45199966430664,-0.2770000100135803,332.9055804211176
1558054339348,-4.616000175476074,9.42300033569336,2.0390000343322754,146.8479196834936
1558054339418,-1.49399995803833,,,
1558054339419,,0.33500000834465027,-0.41100001335144043,176.74328885042422
1558054339488,-2.7290000915527344,-6.589000225067139,5.09499979019165,110.45180869097658
1558054339539,-3.111999988555908,3.006999969482422,4.75,132.5261604657574
1558054339598,3.628999948501587,23.482999801635742,1.6369999647140503,14.975645670380061
1558054339600,,,,16.657299715739725
1558054339669,7.258999824523926,23.836999893188477,1.7999999523162842,5.373667978093636
1558054339742,2.2690000534057617,5.918000221252441,-0.8519999980926514,313.73010607161007
1558054339815,0.4020000100135803,-6.664999961853027,1.6180000305175781,122.39245468101961
1558054339867,-0.9190000295639038,-3.3989999294281006,3.0160000324249268,117.0437608627393
1558054339948,2.565999984741211,6.78000020980835,4.309000015258789,89.21008429677704
1558054340014,11.02299976348877,,,
1558054340015,,29.05699920654297,5.7270002365112305,23.08651238524311
1558054340059,1.0429999828338623,19.507999420166016,2.9110000133514404,61.578048575491835
1558054340125,-2.614000082015991,4.567999839782715,-0.4779999852180481,175.90873535649703
1558054340149,,,,177.53232596372243
1558054340216,-2.134999990463257,-5.918000221252441,2.193000078201294,179.56117901516134
1558054340284,-3.687000036239624,-1.9630000591278076,2.4130001068115234,123.62538578847693
1558054340351,6.110000133514404,10.170000076293945,,
1558054340352,,,3.821000099182129,56.26644609949932
1558054340396,-3.5329999923706055,33.98899841308594,,
1558054340397,,,9.98799991607666,115.3091796815012
1558054340455,5.199999809265137,,,
1558054340456,,9.815999984741211,3.8970000743865967,65.25898095318428
1558054340457,,,,65.62948456471167
1558054340527,0.7369999885559082,-1.0429999828338623,-1.1970000267028809,223.04040472512236
1558054340595,0.02800000086426735,-5.918000221252441,2.6429998874664307,117.48794172484358
1558054340661,-2.441999912261963,0.29600000381469727,1.7039999961853027,144.80346647999033
1558054340722,7.671000003814697,9.13599967956543,2.9489998817443848,48.70451827313559
1558054340785,2.805999994277954,37.14899826049805,7.939000129699707,65.59415199613517
1558054340805,,,,64.07966683071157
1558054340866,1.2350000143051147,11.57800006866455,-0.9279999732971191,299.1166158140443
1558054340922,-3.0739998817443848,1.3209999799728394,3.2170000076293945,137.4182971191574
1558054340983,-1.49399995803833,-5.888999938964844,3.7820000648498535,111.01866658076347
1558054341053,-2.0390000343322754,2.872999906539917,2.700000047683716,135.77836869943732
1558054341059,,,,137.21735295377562
1558054341115,1.034000039100647,,,
1558054341116,,24.535999298095703,6.809000015258789,85.85308047066161
1558054341198,4.8460001945495605,,,
1558054341199,,25.51300048828125,2.680999994277954,24.73305755072164
1558054341255,1.2059999704360962,5.775000095367432,0.8999999761581421,36.920526086801374
1558054341256,,,,35.75090058766631
1558054341313,0.9380000233650208,-6.8470001220703125,1.656000018119812,137.65425283422465
1558054341378,-0.04699999839067459,-3.380000114440918,1.781000018119812,120.36935264886182
1558054341379,,,,123.15074228267443
1558054341455,3.437999963760376,9.385000228881836,10.77400016784668,114.39152327594249
1558054341515,9.413999557495117,29.42099952697754,10.447999954223633,53.157818687456825
1558054341577,2.7860000133514404,16.059999465942383,4.664000034332275,54.93412890942909
1558054341607,,,,54.441791798581676
1558054341649,-5.01800012588501,2.9210000038146973,1.7519999742507935,151.17338286221428
1558054341708,-3.13100004196167,,,
1558054341709,,-5.697999954223633,0.0860000029206276,38.46097963144939
1558054341781,-4.702000141143799,-0.5929999947547913,3.1600000858306885,136.59901592821436
1558054341842,6.550000190734863,13.005000114440918,-5.190000057220459,274.6205931482788
1558054341913,-1.8480000495910645,40.03200149536133,1.9819999933242798,125.15701472871729
1558054341973,4.539000034332275,9.720000267028809,2.240999937057495,33.521031653859325
1558054341995,,,,34.051587088207555
1558054342039,3.494999885559082,-2.0869998931884766,-0.06700000166893005,188.13518742463577
1558054342048,,,,188.4271916720321
1558054342109,-0.7179999947547913,-5.401000022888184,3.13100004196167,113.46125834117592
1558054342181,-3.0160000324249268,2.7860000133514404,2.384000062942505,146.11640642338523
1558054342237,6.8379998207092285,18.80900001525879,6.0329999923706055,48.00098488296214
1558054342238,,,,43.08121328418031
1558054342313,6.607999801635742,30.368999481201172,-0.3440000116825104,332.02482069745525
1558054342372,-3.063999891281128,8.503999710083008,1.2350000143051147,147.49962901333953
1558054342441,-3.2079999446868896,-1.5889999866485596,1.8480000495910645,127.33568114941127
1558054342514,-1.9249999523162842,-4.40500020980835,4.051000118255615,117.06220237349834
1558054342572,-2.8529999256134033,,,
1558054342573,,4.855000019073486,6.38700008392334,131.08497689050637
1558054342641,6.348999977111816,25.579999923706055,7.948999881744385,62.42459588160159
1558054342701,6.052000045776367,25.111000061035156,1.2829999923706055,7.026656573280434
1558054342770,0.8809999823570251,3.505000114440918,0.7369999885559082,47.53312033991085
1558054342840,1.2829999923706055,-8.868000030517578,0.20999999344348907,176.96397226250733
1558054342905,1.225000023841858,-2.7290000915527344,1.1009999513626099,154.04001325686863
1558054342969,2.930000066757202,8.39900016784668,12.095000267028809,118.93478069672739
1558054343031,15.581999778747559,29.89900016784668,-7.928999900817871,287.3783278385412
1558054343095,,,,287.32391172142377
1558054343096,-2.0969998836517334,16.46299934387207,5.390999794006348,109.73151060148541
1558054343160,-3.188999891281128,,,
1558054343161,,3.265000104904175,0.8230000138282776,156.84952960968334
1558054343226,-1.8289999961853027,,,
1558054343227,,-5.659999847412109,1.9819999933242798,85.07614645257263
1558054343252,,,,82.55006245974596
1558054343292,-3.572000026702881,,,
1558054343293,,-0.28700000047683716,2.739000082015991,135.52831547392316
1558054343294,,,,137.09446419022873
1558054343358,2.0969998836517334,11.722000122070312,,
1558054343359,,,-1.1490000486373901,314.2386614666417
1558054343374,,,,315.44018053410616
1558054343438,-5.01800012588501,40.500999450683594,8.848999977111816,121.34422554909776
1558054343439,,,,122.14420462544632
1558054343502,7.728000164031982,10.562999725341797,2.5759999752044678,39.392986264454294
1558054343560,2.546999931335449,-3.1500000953674316,-0.6510000228881836,195.8791193018128
1558054343623,1.503000020980835,-2.8440001010894775,2.930000066757202,143.21768780001014
1558054343709,-0.6320000290870667,3.0829999446868896,6.061999797821045,129.3948465803867
1558054343774,4.960000038146973,20.9060001373291,4.375999927520752,39.89988875370682
1558054343830,5.869999885559082,31.775999069213867,1.4739999771118164,357.1565440103127
1558054343831,,,,356.85914028493397
1558054343914,-1.7899999618530273,6.24399995803833,-0.1340000033378601,359.0948006855486
1558054343980,-2.068000078201294,-0.9190000295639038,2.2309999465942383,128.353693524445
1558054344022,-0.9279999732971191,-4.739999771118164,,
1558054344023,,,4.193999767303467,119.13650350367453
1558054344084,1.253999948501587,3.944999933242798,0.257999986410141,4.248988538791821
1558054344097,,,,7.3050076994127835
1558054344150,-2.5280001163482666,,,
1558054344151,,31.459999084472656,12.822999954223633,111.55499352496037
1558054344216,7.61299991607666,,,
1558054344217,,21.490999221801758,-0.6510000228881836,344.8862427819604
1558054344222,,,,345.358878212147
1558054344282,-0.1720000058412552,,,
1558054344283,,2.441999912261963,0.3630000054836273,117.06507105294975
1558054344285,,,,116.1737313662631
1558054344351,-0.2290000021457672,,,
1558054344352,,-8.206999778747559,0.8899999856948853,86.81822035133024
1558054344415,-1.8669999837875366,-2.9110000133514404,0.6990000009536743,63.78971164006617
1558054344481,8.532999992370605,10.362000465393066,1.406999945640564,348.28215734200376
1558054344482,,,,327.0560407838313
1558054344547,8.916000366210938,33.012001037597656,5.229000091552734,21.215423043253168
1558054344613,-0.10499999672174454,16.731000900268555,1.1200000047683716,80.28664705183047
1558054344614,,,,79.97754684094156
1558054344678,-2.930000066757202,3.3610000610351562,,
1558054344679,,,2.4130001068115234,139.71921026561625
1558054344684,,,,140.4843963583328
1558054344745,-1.531999945640564,-6.656000137329102,1.3209999799728394,72.7240840178739
1558054344746,,,,69.59679311392438
1558054344811,-3.111999988555908,-0.5170000195503235,3.619999885559082,132.1857574979023
1558054344812,,,,133.28015870861344
