timestamp,AccX,AccY,AccZ
1558054284045,-1.312000036239624,2.7190001010894775,5.97599983215332
1558054284296,-0.14300000667572021,4.289999961853027,9.595999717712402
1558054284436,-0.1809999942779541,3.5139999389648438,9.088000297546387
1558054284623,-0.3160000145435333,3.86899995803833,7.039000034332275
1558054284699,1.8860000371932983,4.758999824523926,8.628999710083008
1558054284757,-7.210999965667725,9.998000144958496,4.797999858856201
1558054285150,-0.6320000290870667,7.958000183105469,-4.5970001220703125
1558054285283,3.4189999103546143,11.137999534606934,-0.29600000381469727
1558054285348,3.74399995803833,13.446000099182129,-3.619999885559082
1558054285549,-1.9249999523162842,9.26099967956543,1.6369999647140503
1558054285616,1.1770000457763672,5.6020002365112305,0.04699999839067459
1558054285679,0.7269999980926514,5.229000091552734,-0.04699999839067459
1558054285746,0.9760000109672546,7.679999828338623,-0.5450000166893005
1558054286015,1.9149999618530273,12.498000144958496,0.6890000104904175
1558054286074,-0.3160000145435333,6.02400016784668,2.490000009536743
1558054286277,0.8999999761581421,11.272000312805176,0.11400000005960464
1558054286339,1.8380000591278076,14.192999839782715,1.2829999923706055
1558054286407,1.1299999952316284,6.789999961853027,3.390000104904175
1558054286602,5.2769999504089355,18.62700080871582,3.188999891281128
1558054286938,2.25,23.100000381469727,9.758999824523926
1558054286999,3.1500000953674316,20.648000717163086,3.936000108718872
1558054287064,2.86299991607666,6.828000068664551,-3.1600000858306885
1558054287263,4.2129998207092285,10.630000114440918,2.2119998931884766
1558054287336,5.285999774932861,24.163000106811523,7.288000106811523
1558054287395,2.010999917984009,15.255999565124512,1.0149999856948853
1558054287468,-2.2980000972747803,3.7820000648498535,-0.5550000071525574
1558054287527,-2.739000082015991,-7.114999771118164,3.2750000953674316
1558054287861,3.1019999980926514,-2.930000066757202,-0.1720000058412552
1558054287922,-0.6790000200271606,-1.7139999866485596,2.2209999561309814
1558054288124,2.134999990463257,21.385000228881836,3.1410000324249268
1558054288186,-1.8569999933242798,6.961999893188477,1.3209999799728394
1558054288318,-5.104000091552734,0.01899999938905239,3.677000045776367
1558054288385,0.008999999612569809,9.347000122070312,4.625
1558054288583,3.1410000324249268,-0.16200000047683716,-2.671999931335449
1558054288714,2.2119998931884766,1.1679999828338623,0.1809999942779541
1558054288979,-0.257999986410141,2.3359999656677246,3.552999973297119
1558054289044,-4.7210001945495605,-8.005999565124512,2.375
1558054289375,0.14300000667572021,-7.585000038146973,3.677000045776367
1558054289440,-2.3269999027252197,-0.621999979019165,-0.257999986410141
1558054289507,1.4459999799728394,15.170000076293945,12.545999526977539
1558054289578,10.343000411987305,31.20199966430664,17.325000762939453
1558054289718,-0.9380000233650208,-3.0739998817443848,-0.5260000228881836
1558054289777,-1.6080000400543213,-1.3209999799728394,2.7960000038146973
1558054289907,0.3540000021457672,26.950000762939453,4.423999786376953
1558054290035,3.2750000953674316,3.687000036239624,-2.115999937057495
1558054290100,-0.20100000500679016,-7.39300012588501,1.7999999523162842
1558054290177,0.1340000033378601,-0.382999986410141,2.2690000534057617
1558054290437,-3.3320000171661377,1.6369999647140503,1.4550000429153442
1558054290498,-2.5759999752044678,-6.204999923706055,4.2230000495910645
1558054290562,0.01899999938905239,2.86299991607666,0.621999979019165
1558054290629,0.33500000834465027,22.524999618530273,5.50600004196167
1558054290826,0.1340000033378601,-5.343999862670898,4.051000118255615
1558054291029,11.607000350952148,34.237998962402344,6.568999767303467
1558054291091,-4.567999839782715,13.531999588012695,4.318999767303467
1558054291222,-0.5550000071525574,-5.343999862670898,2.068000078201294
1558054291306,1.2730000019073486,4.021999835968018,0.9279999732971191
1558054291370,-1.2920000553131104,22.582000732421875,2.747999906539917
1558054291552,-0.6029999852180481,-6.396999835968018,2.7190001010894775
1558054291635,1.1679999828338623,-0.41100001335144043,2.700000047683716
1558054291691,2.4509999752044678,4.616000175476074,8.388999938964844
1558054291882,-4.7210001945495605,3.236999988555908,-0.5550000071525574
1558054291968,-1.465000033378601,-5.229000091552734,-0.640999972820282
1558054292212,3.3519999980926514,9.949999809265137,2.509000062942505
1558054292294,2.757999897003174,-3.2170000076293945,-1.1490000486373901
1558054292350,-0.7749999761581421,-3.111999988555908,3.821000099182129
1558054292416,1.225000023841858,3.5429999828338623,2.078000068664551
1558054292480,3.677000045776367,24.996000289916992,8.015999794006348
1558054292546,-1.465000033378601,22.113000869750977,3.4860000610351562
1558054292611,-5.199999809265137,6.02400016784668,-2.0490000247955322
1558054292679,-0.8610000014305115,-4.453000068664551,1.6660000085830688
1558054292748,-4.175000190734863,-1.4359999895095825,3.1019999980926514
1558054292872,-2.4130001068115234,36.1150016784668,2.5759999752044678
1558054292947,4.165999889373779,10.803000450134277,2.068000078201294
1558054293018,1.628000020980835,-4.5970001220703125,-1.1579999923706055
1558054293076,-0.4880000054836273,-2.0869998931884766,3.552999973297119
1558054293270,8.619000434875488,29.496999740600586,3.5910000801086426
1558054293342,-6.473999977111816,8.503999710083008,-3.13100004196167
1558054293413,-1.5700000524520874,-5.01800012588501,1.2350000143051147
1558054293466,-5.515999794006348,-1.350000023841858,2.9110000133514404
1558054293550,6.204999923706055,5.209000110626221,5.046999931335449
1558054293619,-4.932000160217285,37.263999938964844,5.190000057220459
1558054293668,3.5329999923706055,12.97700023651123,3.4089999198913574
1558054293738,4.28000020980835,-1.7619999647140503,-2.078000068664551
1558054293797,-2.010999917984009,-5.994999885559082,3.9260001182556152
1558054293863,1.090999960899353,3.878000020980835,0.746999979019165
1558054293942,2.5850000381469727,17.410999298095703,2.7860000133514404
1558054294012,10.428999900817871,32.150001525878906,1.2059999704360962
1558054294130,-2.872999906539917,-1.8380000591278076,0.4300000071525574
1558054294331,1.1970000267028809,29.621999740600586,7.814000129699707
1558054294406,0.9959999918937683,16.174999237060547,2.881999969482422
1558054294457,3.303999900817871,0.5740000009536743,-2.441999912261963
1558054294589,0.8140000104904175,2.632999897003174,0.6700000166893005
1558054294661,1.6469999551773071,18.503000259399414,4.519999980926514
1558054294787,-5.688000202178955,10.380999565124512,-2.1540000438690186
1558054294854,-2.624000072479248,-2.940000057220459,1.1200000047683716
1558054294930,-4.184999942779541,-3.063999891281128,5.23799991607666
1558054295051,-0.6510000228881836,33.930999755859375,2.384000062942505
1558054295123,1.944000005722046,16.290000915527344,6.875999927520752
1558054295199,3.3320000171661377,1.7039999961853027,-2.183000087738037
1558054295249,-0.6890000104904175,-7.872000217437744,2.490000009536743
1558054295380,1.3020000457763672,9.050000190734863,1.3980000019073486
1558054295448,14.442000389099121,34.736000061035156,-1.5219999551773071
1558054295650,-1.6660000085830688,-3.9549999237060547,6.1479997634887695
1558054295718,2.546999931335449,3.888000011444092,2.2690000534057617
1558054295779,-0.3440000116825104,20.3700008392334,4.664000034332275
1558054295844,3.878000020980835,29.8799991607666,0.0860000029206276
1558054295916,3.86899995803833,7.0960001945495605,-0.6890000104904175
1558054295996,1.406999945640564,-6.866000175476074,-0.0949999988079071
1558054296048,-3.802000045776367,-5.448999881744385,4.999000072479248
1558054296124,2.546999931335449,8.418000221252441,8.484999656677246
1558054296238,-0.008999999612569809,17.009000778198242,5.497000217437744
1558054296304,-2.2880001068115234,2.632999897003174,-0.4399999976158142
1558054296373,-3.0739998817443848,-6.291999816894531,3.6010000705718994
1558054296440,-3.5329999923706055,2.5280001163482666,0.20999999344348907
1558054296513,0.15299999713897705,12.190999984741211,-0.257999986410141
1558054296579,3.6579999923706055,38.86399841308594,-0.0949999988079071
1558054296635,4.816999912261963,6.166999816894531,0.7749999761581421
1558054296705,1.7899999618530273,-6.291999816894531,-0.5070000290870667
1558054296776,0.257999986410141,-1.3209999799728394,3.246000051498413
1558054296847,0.8999999761581421,5.63100004196167,3.4089999198913574
1558054296896,4.921999931335449,22.323999404907227,5.620999813079834
1558054296920,12.354000091552734,32.494998931884766,5.458000183105469
1558054296944,11.866000175476074,31.996999740600586,2.068000078201294
1558054296969,2.441999912261963,20.934999465942383,4.175000190734863
1558054296994,-0.008999999612569809,15.944999694824219,4.165999889373779
1558054297018,-4.913000106811523,6.426000118255615,-1.2450000047683716
1558054297033,-5.678999900817871,4.031000137329102,-1.406999945640564
1558054297055,-5.526000022888184,0.04699999839067459,0.1340000033378601
1558054297093,-2.183000087738037,-4.960000038146973,4.126999855041504
1558054297113,-1.0049999952316284,-4.13700008392334,5.353000164031982
1558054297133,-2.441999912261963,-2.930000066757202,3.2750000953674316
1558054297153,-2.259999990463257,-0.02800000086426735,0.8809999823570251
1558054297215,3.619999885559082,11.128000259399414,5.074999809265137
1558054297260,1.944000005722046,29.458999633789062,10.77400016784668
1558054297285,2.441999912261963,35.74100112915039,-1.090999960899353
1558054297303,1.9149999618530273,36.87200164794922,1.4550000429153442
1558054297327,1.1490000486373901,21.21299934387207,3.2170000076293945
1558054297353,2.632999897003174,14.690999984741211,4.40500020980835
1558054297379,3.2170000076293945,3.8499999046325684,-2.2690000534057617
1558054297406,3.0739998817443848,-1.0049999952316284,-2.1740000247955322
1558054297432,2.134999990463257,-4.145999908447266,0.5929999947547913
1558054297443,0.4020000100135803,-5.888999938964844,2.872999906539917
1558054297481,-0.19099999964237213,-3.9639999866485596,3.821000099182129
1558054297507,0.1809999942779541,-1.6759999990463257,3.6480000019073486
1558054297518,0.1340000033378601,0.7179999947547913,-1.6950000524520874
1558054297545,0.8040000200271606,3.1410000324249268,0.28700000047683716
1558054297557,2.2209999561309814,5.50600004196167,2.8440001010894775
1558054297583,3.0260000228881836,8.71500015258789,7.785999774932861
1558054297594,2.365000009536743,16.194000244140625,4.367000102996826
1558054297636,11.51099967956543,34.678001403808594,1.4259999990463257
1558054297662,16.174999237060547,32.48500061035156,-1.1200000047683716
1558054297673,7.296999931335449,23.32900047302246,1.5219999551773071
1558054297702,0.9760000109672546,15.831000328063965,4.165999889373779
1558054297748,-3.437999963760376,9.614999771118164,1.9819999933242798
1558054297760,-2.7860000133514404,4.193999767303467,-0.8610000014305115
1558054297786,-2.0390000343322754,0.8999999761581421,-0.6029999852180481
1558054297844,-3.0450000762939453,-6.5980000495910645,5.372000217437744
1558054297856,-3.4760000705718994,-5.0279998779296875,5.0279998779296875
1558054297872,-2.6040000915527344,0.05700000002980232,1.7330000400543213
1558054297892,-1.5700000524520874,2.9590001106262207,0.4399999976158142
1558054297921,1.034000039100647,5.056000232696533,3.9170000553131104
1558054297948,2.757999897003174,7.6519999504089355,7.747000217437744
1558054297968,2.9010000228881836,15.170000076293945,4.797999858856201
1558054298051,7.202000141143799,32.22700119018555,4.635000228881836
1558054298053,2.9010000228881836,15.197999954223633,5.171000003814697
1558054298079,4.414999961853027,11.060999870300293,1.1009999513626099
1558054298119,3.3420000076293945,1.0429999828338623,-2.2880001068115234
1558054298147,2.183000087738037,-2.4700000286102295,-1.1100000143051147
1558054298158,0.4690000116825104,-5.285999774932861,1.781000018119812
1558054298189,-1.6759999990463257,-6.0329999923706055,3.1410000324249268
1558054298236,0.765999972820282,-1.5889999866485596,5.372000217437744
1558054298274,1.7519999742507935,1.7039999961853027,-3.246000051498413
1558054298299,2.5280001163482666,6.90500020980835,8.475000381469727
1558054298342,2.8440001010894775,19.479000091552734,4.883999824523926
1558054298395,9.222000122070312,28.67300033569336,-0.5740000009536743
1558054298422,1.6950000524520874,22.43899917602539,1.6180000305175781
1558054298449,-2.8919999599456787,17.35300064086914,3.9639999866485596
1558054298452,-5.927999973297119,11.732000350952148,0.6600000262260437
1558054298502,-0.9190000295639038,1.819000005722046,1.225000023841858
1558054298528,-5.074999809265137,-1.531999945640564,1.809999942779541
1558054298538,-4.193999767303467,-6.953000068664551,1.5219999551773071
1558054298565,-2.431999921798706,-8.503999710083008,2.614000082015991
1558054298576,-0.45899999141693115,-6.320000171661377,2.5280001163482666
1558054298604,-2.2309999465942383,-1.9819999933242798,2.000999927520752
1558054298614,-2.4030001163482666,0.24899999797344208,1.0429999828338623
1558054298644,-1.312000036239624,2.4609999656677246,2.4030001163482666
1558054298681,3.7060000896453857,12.555000305175781,4.702000141143799
1558054298746,-2.499000072479248,33.625,1.1299999952316284
1558054298774,-2.6040000915527344,34.650001525878906,3.619999885559082
1558054298869,3.86899995803833,-1.2059999704360962,-3.7920000553131104
1558054298872,3.74399995803833,-3.9639999866485596,-0.3919999897480011
1558054298913,-1.809999942779541,-5.229000091552734,3.0929999351501465
1558054298937,-0.5550000071525574,-2.2980000972747803,2.5759999752044678
1558054298966,0.7940000295639038,-0.9860000014305115,3.763000011444092
1558054298995,0.14300000667572021,-0.2199999988079071,1.090999960899353
1558054299024,2.4130001068115234,4.251999855041504,1.4359999895095825
1558054299044,0.4399999976158142,8.062999725341797,10.305000305175781
1558054299072,-1.5889999866485596,14.413000106811523,7.451000213623047
1558054299073,-0.20100000500679016,26.489999771118164,5.229000091552734
1558054299117,17.85099983215332,32.590999603271484,-2.2119998931884766
1558054299137,4.89300012588501,23.204999923706055,1.684999942779541
1558054299166,-3.609999895095825,20.58099937438965,2.565999984741211
1558054299211,-3.6579999923706055,10.11299991607666,2.259999990463257
1558054299222,-3.2750000953674316,5.888999938964844,-1.4550000429153442
1558054299272,-3.7730000019073486,-5.0370001792907715,3.25600004196167
1558054299301,-1.781000018119812,-7.1539998054504395,1.1770000457763672
1558054299342,-0.5550000071525574,-0.7369999885559082,4.13700008392334
1558054299353,-1.781000018119812,1.9049999713897705,1.465000033378601
1558054299376,-1.1390000581741333,5.775000095367432,0.4880000054836273
1558054299405,2.690999984741211,6.493000030517578,5.583000183105469
1558054299434,0.05700000002980232,10.687999725341797,4.683000087738037
1558054299462,3.3610000610351562,35.29100036621094,0.9279999732971191
1558054299474,0.45899999141693115,36.62300109863281,-1.378999948501587
1558054299500,-0.5070000290870667,24.565000534057617,0.2290000021457672
1558054299541,2.930000066757202,18.358999252319336,4.519999980926514
1558054299582,3.13100004196167,4.021999835968018,-2.384000062942505
1558054299594,3.821000099182129,-0.12399999797344208,-2.7190001010894775
1558054299623,3.2170000076293945,-4.539000034332275,0.4300000071525574
1558054299674,-1.1009999513626099,-9.461999893188477,1.8960000276565552
1558054299705,-0.1720000058412552,-1.972000002861023,5.190000057220459
1558054299735,-0.8330000042915344,1.062999963760376,-0.8899999856948853
1558054299765,0.6890000104904175,6.90500020980835,7.61299991607666
1558054299774,1.4459999799728394,12.086000442504883,6.980999946594238
1558054299809,3.0160000324249268,23.63599967956543,7.556000232696533
1558054299858,17.957000732421875,31.815000534057617,1.3589999675750732
1558054299930,-5.09499979019165,10.659000396728516,4.2230000495910645
1558054299989,-3.6010000705718994,1.062999963760376,0.5450000166893005
1558054299992,-2.240999937057495,-4.89300012588501,0.4300000071525574
1558054300020,-1.6080000400543213,-5.822000026702881,2.1540000438690186
1558054300078,-4.5970001220703125,-3.8499999046325684,4.816999912261963
1558054300122,-5.63100004196167,1.809999942779541,-0.12399999797344208
1558054300134,4.769000053405762,10.276000022888184,6.5980000495910645
1558054300168,1.1299999952316284,16.099000930786133,5.994999885559082
1558054300189,1.034000039100647,27.093000411987305,8.005999565124512
1558054300219,1.1770000457763672,34.974998474121094,-2.9779999256134033
1558054300234,-2.0199999809265137,22.466999053955078,4.01200008392334
1558054300306,3.936000108718872,3.86899995803833,-2.000999927520752
1558054300385,1.3209999799728394,-8.52299976348877,0.8999999761581421
1558054300444,-0.03799999877810478,-0.4399999976158142,2.1449999809265137
1558054300506,0.9480000138282776,7.133999824523926,9.347000122070312
1558054300570,19.85300064086914,32.80099868774414,0.24899999797344208
1558054300705,-3.303999900817871,3.3519999980926514,-0.1809999942779541
1558054300769,-1.350000023841858,-7.019999980926514,4.3379998207092285
1558054300832,-4.567999839782715,3.178999900817871,-0.257999986410141
1558054300895,1.3980000019073486,17.641000747680664,4.01200008392334
1558054300959,0.20100000500679016,34.821998596191406,-1.406999945640564
1558054301028,3.8970000743865967,8.024999618530273,0.5740000009536743
1558054301091,3.9639999866485596,-4.7779998779296875,-1.340000033378601
1558054301244,3.0260000228881836,4.788000106811523,1.2450000047683716
1558054301297,3.878000020980835,25.799999237060547,5.486999988555908
1558054301380,5.1620001792907715,20.68600082397461,3.5910000801086426
1558054301442,-7.460000038146973,5.63100004196167,-0.6890000104904175
1558054301505,-1.4259999990463257,-5.7170000076293945,2.1059999465942383
1558054301633,5.142000198364258,8.187999725341797,5.813000202178955
1558054301695,0.2290000021457672,38.70100021362305,-0.23899999260902405
1558054301758,4.051000118255615,11.817999839782715,4.309000015258789
1558054301883,0.37299999594688416,-4.548999786376953,2.2119998931884766
1558054301949,0.8330000042915344,3.2170000076293945,0.5740000009536743
1558054302094,6.568999767303467,24.334999084472656,2.0299999713897705
1558054302159,-5.947000026702881,6.501999855041504,0.5070000290870667
1558054302228,-4.500999927520752,-4.691999912261963,0.29600000381469727
1558054302294,-1.9529999494552612,-2.7290000915527344,4.2129998207092285
1558054302371,5.132999897003174,5.955999851226807,8.005999565124512
1558054302438,0.5450000166893005,39.64899826049805,5.229000091552734
1558054302506,4.558000087738037,14.86299991607666,3.6010000705718994
1558054302573,3.811000108718872,-2.25,-3.246000051498413
1558054302639,-2.000999927520752,-6.080999851226807,4.28000020980835
1558054302705,-1.1770000457763672,1.781000018119812,-0.3919999897480011
1558054302741,3.7920000553131104,18.62700080871582,-1.1490000486373901
1558054302960,-2.068000078201294,-2.240999937057495,-1.1100000143051147
1558054303024,-4.070000171661377,-4.5970001220703125,3.821000099182129
1558054303089,3.3519999980926514,4.251999855041504,4.75
1558054303283,3.6679999828338623,1.2640000581741333,-2.7190001010894775
1558054303348,-0.5450000166893005,-7.958000183105469,1.934000015258789
1558054303479,2.441999912261963,9.54800033569336,6.8470001220703125
1558054303615,-5.085000038146973,13.934000015258789,3.5910000801086426
1558054303671,-2.2309999465942383,-0.06700000166893005,-1.7519999742507935
1558054303735,-3.0450000762939453,-6.177000045776367,6.521999835968018
1558054303799,1.934000015258789,3.2750000953674316,4.586999893188477
1558054303865,4.28000020980835,29.68899917602539,4.394999980926514
1558054303933,1.0149999856948853,20.159000396728516,6.340000152587891
1558054304000,4.683000087738037,3.734999895095825,-2.757999897003174
1558054304204,2.9779999256134033,5.888999938964844,9.470999717712402
1558054304272,17.554000854492188,39.38999938964844,3.4189999103546143
1558054304339,0.8420000076293945,14.182999610900879,4.816999912261963
1558054304408,-3.121999979019165,3.6010000705718994,0.1809999942779541
1558054304476,-2.3269999027252197,-5.09499979019165,3.753999948501587
1558054304534,-1.1009999513626099,1.0149999856948853,0.02800000086426735
1558054304600,4.193999767303467,11.92300033569336,2.690999984741211
1558054304665,4.8460001945495605,40.81700134277344,-0.9190000295639038
1558054304731,5.706999778747559,9.940999984741211,1.8669999837875366
1558054304798,3.4189999103546143,-3.9839999675750732,0.6700000166893005
1558054304863,-1.6660000085830688,-5.248000144958496,3.371000051498413
1558054304929,2.9779999256134033,3.562000036239624,1.2829999923706055
1558054305063,4.702000141143799,23.5310001373291,0.4020000100135803
1558054305130,-2.5950000286102295,7.296999931335449,-0.746999979019165
1558054305264,-4.500999927520752,-4.586999893188477,3.1019999980926514
1558054305334,3.677000045776367,7.421999931335449,5.966000080108643
1558054305369,3.4860000610351562,13.387999534606934,3.9639999866485596
1558054305404,5.171000003814697,32.75299835205078,-0.3440000116825104
1558054305440,4.107999801635742,26.805999755859375,0.5929999947547913
1558054305475,5.390999794006348,8.494000434875488,0.11400000005960464
1558054305511,4.270999908447266,4.126999855041504,-2.068000078201294
1558054305515,3.5239999294281006,0.04699999839067459,-1.7519999742507935
1558054305547,2.805999994277954,-4.7210001945495605,0.0
1558054305582,-0.5450000166893005,-7.077000141143799,4.4720001220703125
1558054305616,-3.505000114440918,-4.13700008392334,4.126999855041504
1558054305684,-0.7940000295639038,2.815000057220459,-0.3919999897480011
1558054305741,12.640999794006348,25.17799949645996,3.6010000705718994
1558054305776,20.139999389648438,32.10200119018555,2.3269999027252197
1558054305823,4.702000141143799,24.756000518798828,1.9630000591278076
1558054305837,-2.25,13.090999603271484,3.7149999141693115
1558054305907,-2.308000087738037,6.501999855041504,-1.9819999933242798
1558054305943,-1.5609999895095825,-1.49399995803833,0.45899999141693115
1558054305955,-2.490000009536743,-6.550000190734863,2.0390000343322754
1558054305995,-2.86299991607666,-5.706999778747559,4.2129998207092285
1558054306043,-3.437999963760376,3.6480000019073486,3.9639999866485596
1558054306056,4.040999889373779,4.6539998054504395,5.09499979019165
1558054306091,2.3269999027252197,9.173999786376953,1.8860000371932983
1558054306102,2.2690000534057617,17.94700050354004,1.7519999742507935
1558054306137,3.063999891281128,26.393999099731445,3.2750000953674316
1558054306187,0.6890000104904175,23.27199935913086,6.664999961853027
1558054306221,5.7170000076293945,16.06999969482422,5.85099983215332
1558054306256,4.070000171661377,6.080999851226807,-2.125999927520752
1558054306292,1.9049999713897705,-2.7860000133514404,0.01899999938905239
1558054306326,1.2640000581741333,-6.434999942779541,4.078999996185303
1558054306402,-0.9760000109672546,0.4880000054836273,1.1299999952316284
1558054306437,5.4679999351501465,1.378999948501587,-1.378999948501587
1558054306471,2.499000072479248,10.295000076293945,5.515999794006348
1558054306482,3.0350000858306885,19.5939998626709,2.2119998931884766
1558054306534,5.861000061035156,27.820999145507812,-1.406999945640564
1558054306565,3.0739998817443848,22.591999053955078,0.8330000042915344
1558054306601,1.1390000581741333,16.02199935913086,1.8380000591278076
1558054306643,-2.872999906539917,4.107999801635742,-2.509000062942505
1558054306679,-1.8960000276565552,1.684999942779541,1.5410000085830688
1558054306714,-2.5850000381469727,-5.97599983215332,4.126999855041504
1558054306715,-3.3320000171661377,-6.636000156402588,2.499000072479248
1558054306763,-4.7210001945495605,-4.2129998207092285,3.9839999675750732
1558054306812,1.312000036239624,0.24899999797344208,0.6890000104904175
1558054306816,0.8040000200271606,9.050000190734863,4.375999927520752
1558054306852,0.5740000009536743,15.312999725341797,1.0049999952316284
1558054306862,3.888000011444092,24.440000534057617,0.7369999885559082
1558054306901,1.9049999713897705,35.27199935913086,3.390000104904175
1558054306938,-2.6040000915527344,27.725000381469727,7.61299991607666
1558054306977,4.261000156402588,13.800000190734863,-0.7369999885559082
1558054307015,3.4660000801086426,3.1500000953674316,-2.193000078201294
1558054307053,3.821000099182129,-3.993000030517578,3.6010000705718994
1558054307065,-3.6389999389648438,-7.679999828338623,4.6539998054504395
1558054307103,-0.12399999797344208,-5.315000057220459,1.3880000114440918
1558054307162,0.3540000021457672,1.6950000524520874,1.656000018119812
1558054307201,4.423999786376953,-0.28700000047683716,-0.01899999938905239
1558054307239,2.4700000286102295,8.043999671936035,9.107000350952148
1558054307289,8.236000061035156,33.55799865722656,12.862000465393066
1558054307314,4.797999858856201,21.691999435424805,-0.0860000029206276
1558054307378,-2.757999897003174,11.347999572753906,1.4550000429153442
1558054307417,-2.5950000286102295,5.285999774932861,-0.9670000076293945
1558054307503,-3.0350000858306885,-6.742000102996826,3.6480000019073486
1558054307555,0.6510000228881836,2.5280001163482666,6.866000175476074
1558054307592,-0.257999986410141,5.97599983215332,2.000999927520752
1558054307603,-4.5970001220703125,16.405000686645508,0.32499998807907104
1558054307646,6.664999961853027,26.527999877929688,4.672999858856201
1558054307657,7.986999988555908,33.5099983215332,2.0299999713897705
1558054307696,4.9029998779296875,25.599000930786133,2.000999927520752
1558054307746,5.401000022888184,8.800999641418457,-1.090999960899353
1558054307783,3.5239999294281006,5.572999954223633,-1.6180000305175781
1558054307822,-1.2640000581741333,-2.4609999656677246,1.9630000591278076
1558054307859,-1.9630000591278076,-4.3379998207092285,4.261000156402588
1558054307896,-0.02800000086426735,-1.8860000371932983,1.6369999647140503
1558054307944,4.242000102996826,0.257999986410141,-1.1970000267028809
1558054307955,1.1299999952316284,8.27400016784668,6.196000099182129
1558054307992,3.0450000762939453,17.392000198364258,2.815000057220459
1558054307995,12.468999862670898,26.030000686645508,1.6180000305175781
1558054308041,24.766000747680664,31.374000549316406,3.063999891281128
1558054308078,7.9679999351501465,23.885000228881836,2.700000047683716
1558054308155,-3.265000104904175,3.427999973297119,-1.4359999895095825
1558054308193,-2.0869998931884766,-1.49399995803833,1.7519999742507935
1558054308204,-2.8529999256134033,-5.01800012588501,3.7820000648498535
1558054308243,-2.9010000228881836,-5.497000217437744,2.308000087738037
1558054308256,-3.3989999294281006,0.4690000116825104,3.188999891281128
1558054308330,3.878000020980835,2.805999994277954,7.105999946594238
1558054308335,3.447000026702881,17.12299919128418,2.0390000343322754
1558054308368,6.434999942779541,23.770000457763672,2.9010000228881836
1558054308405,8.331999778747559,31.863000869750977,-0.3919999897480011
1558054308444,5.50600004196167,26.288999557495117,2.5369999408721924
1558054308455,6.914000034332275,9.633999824523926,-0.4880000054836273
1558054308493,6.493000030517578,4.960000038146973,-2.115999937057495
1558054308504,5.209000110626221,0.746999979019165,-2.700000047683716
1558054308545,2.0390000343322754,-1.972000002861023,-1.0149999856948853
1558054308586,-1.531999945640564,-5.401000022888184,2.3359999656677246
1558054308626,-1.0240000486373901,-2.700000047683716,3.303999900817871
1558054308637,1.8289999961853027,2.1540000438690186,1.1679999828338623
1558054308682,2.078000068664551,4.921999931335449,4.548999786376953
1558054308734,3.936000108718872,16.031999588012695,10.008000373840332
1558054308760,10.630000114440918,24.822999954223633,6.185999870300293
1558054308835,-1.934000015258789,12.23900032043457,0.5929999947547913
1558054308917,-2.2690000534057617,-1.6759999990463257,-0.4300000071525574
1558054308960,-2.6429998874664307,-1.378999948501587,3.9639999866485596
1558054309041,1.465000033378601,4.874000072479248,6.080999851226807
1558054309122,6.559999942779541,30.177000045776367,-0.5360000133514404
1558054309163,6.1479997634887695,17.61199951171875,2.614000082015991
1558054309232,6.1479997634887695,2.930000066757202,-2.4609999656677246
1558054309314,-4.261000156402588,-6.8379998207092285,2.6429998874664307
1558054309355,2.068000078201294,1.684999942779541,0.11400000005960464
1558054309421,1.2350000143051147,6.933000087738037,12.133999824523926
1558054309492,13.369000434875488,26.336999893188477,6.894999980926514
1558054309651,-4.625,1.3589999675750732,1.4359999895095825
1558054309690,-1.9049999713897705,-5.09499979019165,2.5850000381469727
1558054309768,-2.5759999752044678,0.15299999713897705,0.5260000228881836
1558054309818,2.7960000038146973,17.697999954223633,2.757999897003174
1558054309890,11.539999961853027,31.163999557495117,3.8499999046325684
1558054309949,3.6010000705718994,10.659000396728516,-1.809999942779541
1558054310025,1.3309999704360962,-4.5970001220703125,0.28700000047683716
1558054310149,4.270999908447266,3.936000108718872,0.8040000200271606
1558054310233,13.770999908447266,27.20800018310547,3.878000020980835
1558054310414,-2.5850000381469727,-5.171000003814697,1.934000015258789
1558054310498,-2.5179998874664307,0.7559999823570251,2.6519999504089355
1558054310552,3.303999900817871,7.355000019073486,7.834000110626221
1558054310693,9.461999893188477,11.204999923706055,2.9779999256134033
1558054310819,-1.9249999523162842,-4.309000015258789,4.453000068664551
1558054310905,0.1340000033378601,4.567999839782715,0.8809999823570251
1558054310948,3.6389999389648438,16.290000915527344,4.098999977111816
1558054311031,11.031999588012695,25.483999252319336,1.8960000276565552
1558054311083,-2.078000068664551,9.107000350952148,-0.24899999797344208
1558054311216,-1.972000002861023,-3.236999988555908,3.2170000076293945
1558054311335,3.3320000171661377,24.459999084472656,8.64799976348877
1558054311406,5.869999885559082,24.795000076293945,-3.4860000610351562
1558054311486,4.48199987411499,4.644000053405762,-1.5800000429153442
1558054311560,-0.6510000228881836,-5.458000183105469,2.4609999656677246
1558054311634,0.746999979019165,-1.9529999494552612,2.996999979019165
1558054311747,18.511999130249023,29.822999954223633,2.614000082015991
1558054311823,0.0860000029206276,14.652999877929688,4.089000225067139
1558054311863,-0.765999972820282,3.2939999103546143,-0.1809999942779541
1558054311930,-1.7330000400543213,-6.1479997634887695,2.86299991607666
1558054311995,-1.6469999551773071,1.8669999837875366,1.8860000371932983
1558054312093,4.089000225067139,14.413000106811523,4.394999980926514
1558054312158,8.10200023651123,34.32400131225586,0.06700000166893005
1558054312193,5.113999843597412,10.102999687194824,0.4779999852180481
1558054312261,0.9670000076293945,-2.747999906539917,0.0949999988079071
1558054312391,1.9249999523162842,6.4070000648498535,4.28000020980835
1558054312655,-0.9279999732971191,-3.322999954223633,1.1770000457763672
1558054312742,-3.9070000648498535,-2.5280001163482666,0.8140000104904175
1558054312808,2.930000066757202,6.894999980926514,2.700000047683716
1558054312919,6.377999782562256,14.317000389099121,1.4259999990463257
1558054312985,2.9590001106262207,5.4679999351501465,-1.0820000171661377
1558054313051,-0.6890000104904175,-8.560999870300293,2.3269999027252197
1558054313117,-4.01200008392334,-0.0860000029206276,1.1579999923706055
1558054313182,3.5239999294281006,16.1560001373291,0.32499998807907104
1558054313250,8.130000114440918,30.07200050354004,-2.565999984741211
1558054313348,-5.104000091552734,8.197999954223633,2.6519999504089355
1558054313382,-5.256999969482422,1.4259999990463257,1.3880000114440918
1558054313653,6.340000152587891,23.5310001373291,1.1299999952316284
1558054313724,3.505000114440918,2.9010000228881836,-1.090999960899353
1558054313795,0.9570000171661377,-4.491000175476074,2.7860000133514404
1558054313800,0.8230000138282776,-4.232999801635742,3.3320000171661377
1558054313830,-0.9480000138282776,-2.5280001163482666,3.3610000610351562
1558054313866,-1.1299999952316284,0.7080000042915344,1.684999942779541
1558054313949,3.7920000553131104,12.755999565124512,2.0390000343322754
1558054313960,9.510000228881836,27.006999969482422,7.51800012588501
1558054313995,8.88700008392334,30.20599937438965,3.390000104904175
1558054314006,6.742000102996826,25.1200008392334,-2.2690000534057617
1558054314044,6.204999923706055,19.891000747680664,0.1340000033378601
1558054314057,-1.9630000591278076,10.40999984741211,-0.11400000005960464
1558054314092,-2.499000072479248,5.745999813079834,-0.04699999839067459
1558054314097,-8.685999870300293,1.034000039100647,1.465000033378601
1558054314128,-7.230000019073486,-3.063999891281128,-0.8899999856948853
1558054314164,-4.940999984741211,-5.89900016784668,-1.9919999837875366
1558054314200,0.0860000029206276,-3.2269999980926514,4.4720001220703125
1558054314293,0.23899999260902405,7.019999980926514,4.500999927520752
1558054314303,-6.51200008392334,19.652000427246094,7.718999862670898
1558054314377,4.318999767303467,32.207000732421875,0.7850000262260437
1558054314412,1.340000033378601,11.204999923706055,2.4509999752044678
1558054314458,2.9590001106262207,4.386000156402588,-0.621999979019165
1558054314477,3.312999963760376,-1.6660000085830688,-0.8899999856948853
1558054314538,1.4739999771118164,-3.4760000705718994,1.2059999704360962
1558054314573,-2.316999912261963,-5.296000003814697,3.5329999923706055
1558054314607,-2.747999906539917,-1.350000023841858,1.5130000114440918
1558054314698,2.98799991607666,32.9640007019043,1.656000018119812
1558054314733,9.711000442504883,29.42099952697754,1.225000023841858
1558054314744,3.9260001182556152,23.933000564575195,0.7749999761581421
1558054314781,0.4020000100135803,16.079999923706055,6.185999870300293
1558054314829,-6.550000190734863,8.675999641418457,-0.04699999839067459
1558054314841,-4.193999767303467,1.3209999799728394,-1.340000033378601
1558054314877,-2.8440001010894775,-0.45899999141693115,-0.1340000033378601
1558054314971,-3.188999891281128,-1.034000039100647,4.940999984741211
1558054314982,1.6660000085830688,3.265000104904175,3.8499999046325684
1558054315018,2.9110000133514404,9.42300033569336,4.367000102996826
1558054315066,-3.0450000762939453,19.53700065612793,7.239999771118164
1558054315113,-0.7940000295639038,33.17499923706055,2.930000066757202
1558054315123,0.8040000200271606,18.493000030517578,5.7170000076293945
1558054315161,3.0260000228881836,13.743000030517578,2.000999927520752
1558054315209,2.5850000381469727,4.921999931335449,-2.115999937057495
1558054315220,2.3459999561309814,-1.5609999895095825,0.24899999797344208
1558054315237,1.7519999742507935,-4.40500020980835,0.8899999856948853
1558054315258,-0.33500000834465027,-4.8460001945495605,1.9919999837875366
1558054315292,-1.3980000019073486,-4.442999839782715,3.0260000228881836
1558054315297,-1.340000033378601,-1.8480000495910645,4.4720001220703125
1558054315328,-1.1970000267028809,-1.7430000305175781,0.9959999918937683
1558054315366,-1.6660000085830688,1.2059999704360962,1.5889999866485596
1558054315402,3.2750000953674316,7.269000053405762,4.261000156402588
1558054315417,3.121999979019165,24.450000762939453,7.125
1558054315450,7.182000160217285,30.6560001373291,1.5509999990463257
1558054315487,8.819999694824219,30.62700080871582,3.5910000801086426
1558054315522,2.2880001068115234,21.566999435424805,3.303999900817871
1558054315558,-3.5429999828338623,8.982999801635742,-0.1809999942779541
1558054315594,-4.940999984741211,3.8499999046325684,1.6369999647140503
1558054315603,-5.448999881744385,-1.9049999713897705,1.7999999523162842
1558054315644,-2.2790000438690186,-6.501999855041504,2.815000057220459
1558054315682,-1.6469999551773071,-6.377999782562256,4.683000087738037
1558054315721,-4.96999979019165,-1.8669999837875366,1.9819999933242798
1558054315759,-2.5950000286102295,5.775000095367432,8.303000450134277
1558054315798,2.068000078201294,28.214000701904297,11.33899974822998
1558054315850,3.936000108718872,33.72999954223633,0.01899999938905239
1558054315862,1.3589999675750732,19.268999099731445,1.465000033378601
1558054315890,3.2170000076293945,15.361000061035156,1.5410000085830688
1558054315901,4.175000190734863,8.791000366210938,0.9380000233650208
1558054315944,4.625,5.229000091552734,-2.815000057220459
1558054315985,3.1019999980926514,-2.059000015258789,-2.115999937057495
1558054315997,-0.20100000500679016,-4.3379998207092285,3.628999948501587
1558054316024,-1.1390000581741333,-3.0450000762939453,3.3610000610351562
1558054316063,-0.8040000200271606,-1.5130000114440918,2.2309999465942383
1558054316102,-1.49399995803833,0.8809999823570251,0.8140000104904175
1558054316153,-1.062999963760376,4.059999942779541,8.053999900817871
1558054316157,6.348999977111816,27.29400062561035,0.9860000014305115
1558054316203,14.345999717712402,31.038999557495117,-7.144000053405762
1558054316228,6.329999923706055,24.066999435424805,1.0049999952316284
1558054316266,3.8970000743865967,21.298999786376953,0.3160000145435333
1558054316278,-3.9639999866485596,10.611000061035156,0.8610000014305115
1558054316323,-4.145999908447266,5.831999778747559,-0.05700000002980232
1558054316362,-5.966000080108643,-0.4690000116825104,1.340000033378601
1558054316449,-3.562000036239624,-1.9819999933242798,3.9070000648498535
1558054316460,0.7179999947547913,-0.02800000086426735,2.115999937057495
1558054316499,2.0390000343322754,3.6480000019073486,3.552999973297119
1558054316536,2.499000072479248,21.423999786376953,2.3940000534057617
1558054316574,-3.13100004196167,25.014999389648438,1.503000020980835
1558054316584,8.083000183105469,39.04600143432617,-1.5889999866485596
1558054316622,5.142000198364258,25.493999481201172,2.739000082015991
1558054316671,4.999000072479248,6.091000080108643,-2.3359999656677246
1558054316709,4.442999839782715,1.1299999952316284,-0.14300000667572021
1558054316717,1.090999960899353,-3.562000036239624,1.2450000047683716
1558054316748,-0.5450000166893005,-3.2269999980926514,2.000999927520752
1558054316785,-0.5070000290870667,-5.572999954223633,3.13100004196167
1558054316823,-2.5850000381469727,-3.447000026702881,1.809999942779541
1558054316837,-1.1200000047683716,3.687000036239624,1.7230000495910645
1558054316872,1.0429999828338623,5.229000091552734,4.078999996185303
1558054316911,5.372000217437744,13.178000450134277,0.20100000500679016
1558054316917,9.366000175476074,27.773000717163086,10.102999687194824
1558054316949,20.361000061035156,37.130001068115234,1.6369999647140503
1558054316988,11.885000228881836,26.729000091552734,1.6180000305175781
1558054316997,-2.365000009536743,14.32699966430664,6.2729997634887695
1558054317027,-4.730999946594238,9.031000137329102,-0.2290000021457672
1558054317068,-5.410999774932861,5.23799991607666,-2.2119998931884766
1558054317106,-5.802999973297119,-0.4779999852180481,1.8380000591278076
1558054317117,-3.802000045776367,-5.181000232696533,2.2309999465942383
1558054317156,-3.1019999980926514,-4.089000225067139,2.872999906539917
1558054317157,-3.3519999980926514,-2.5950000286102295,1.9529999494552612
1558054317253,0.7179999947547913,5.861000061035156,6.73199987411499
1558054317334,0.33500000834465027,34.611000061035156,3.2939999103546143
1558054317374,1.9249999523162842,16.46299934387207,3.763000011444092
1558054317455,1.531999945640564,3.3989999294281006,-1.6180000305175781
1558054317590,-0.6510000228881836,0.44999998807907104,0.5070000290870667
1558054317630,4.021999835968018,17.47800064086914,10.869999885559082
1558054317710,4.48199987411499,27.812000274658203,5.955999851226807
1558054317754,-3.619999885559082,9.586000442504883,1.0429999828338623
1558054317831,-2.010999917984009,-0.9190000295639038,1.2640000581741333
1558054317914,-4.3379998207092285,-4.605999946594238,3.4089999198913574
1558054317956,1.6950000524520874,4.184999942779541,4.913000106811523
1558054318015,-3.0450000762939453,28.84600067138672,5.142000198364258
1558054318099,2.059000015258789,20.139999389648438,2.384000062942505
1558054318147,3.312999963760376,2.940000057220459,-1.7330000400543213
1558054318219,0.257999986410141,-4.510000228881836,1.090999960899353
1558054318299,-1.2730000019073486,0.8330000042915344,1.809999942779541
1558054318381,1.6369999647140503,6.8379998207092285,8.303000450134277
1558054318503,-2.3550000190734863,11.970999717712402,2.9779999256134033
1558054318543,-2.5850000381469727,2.316999912261963,0.9480000138282776
1558054318626,-2.134999990463257,-5.381999969482422,5.1519999504089355
1558054318706,0.5929999947547913,1.3980000019073486,2.4700000286102295
1558054318749,-2.757999897003174,12.670000076293945,6.914000034332275
1558054318832,1.465000033378601,33.202999114990234,-2.4509999752044678
1558054318886,5.706999778747559,8.10200023651123,4.051000118255615
1558054319030,-1.8960000276565552,-3.505000114440918,8.762999534606934
1558054319089,2.546999931335449,7.901000022888184,3.802000045776367
1558054319143,19.996999740600586,39.38999938964844,2.815000057220459
1558054319241,-5.736000061035156,15.083999633789062,6.2729997634887695
1558054319283,-1.1770000457763672,0.5260000228881836,-0.7559999823570251
1558054319368,-4.758999824523926,-6.7230000495910645,3.9070000648498535
1558054319499,-3.7060000896453857,21.54800033569336,6.761000156402588
1558054319542,0.9480000138282776,21.68199920654297,6.301000118255615
1558054319627,1.531999945640564,6.73199987411499,1.4739999771118164
1558054319681,0.9570000171661377,-7.804999828338623,1.0149999856948853
1558054319735,0.3919999897480011,0.4880000054836273,1.6950000524520874
1558054319819,2.8919999599456787,3.628999948501587,4.769000053405762
1558054319902,8.71500015258789,32.35100173950195,-0.5740000009536743
1558054319944,0.6600000262260437,17.315000534057617,4.175000190734863
1558054320029,-3.5910000801086426,4.01200008392334,0.640999972820282
1558054320072,-2.3459999561309814,-5.775000095367432,1.2350000143051147
1558054320214,4.539000034332275,8.819999694824219,1.0529999732971191
1558054320267,-3.1600000858306885,39.22800064086914,3.111999988555908
1558054320350,5.0370001792907715,9.097999572753906,2.125999927520752
1558054320393,1.9149999618530273,-3.6480000019073486,-0.5550000071525574
1558054320537,-0.4300000071525574,2.8440001010894775,0.7080000042915344
1558054320596,5.285999774932861,24.527000427246094,3.763000011444092
1558054320731,-2.7290000915527344,8.906000137329102,-0.3440000116825104
1558054320865,-3.753999948501587,-3.390000104904175,3.188999891281128
1558054320921,2.9590001106262207,7.690000057220459,4.625
1558054321126,3.821000099182129,-0.6890000104904175,-2.0299999713897705
1558054321216,-0.4880000054836273,-4.788000106811523,2.9489998817443848
1558054321262,0.11400000005960464,2.815000057220459,-0.5929999947547913
1558054321315,3.427999973297119,11.4350004196167,3.9839999675750732
1558054321516,-1.4359999895095825,-2.010999917984009,1.6080000400543213
1558054321603,-4.2230000495910645,-5.97599983215332,4.864999771118164
1558054321647,2.5369999408721924,3.9070000648498535,5.486999988555908
1558054321733,-1.034000039100647,30.88599967956543,-2.881999969482422
1558054321876,3.5429999828338623,0.746999979019165,-1.3209999799728394
1558054321931,-0.7749999761581421,-4.644000053405762,2.700000047683716
1558054321996,-1.0049999952316284,0.07599999755620956,-0.9480000138282776
1558054322043,1.465000033378601,14.25,10.008000373840332
1558054322136,9.307999610900879,29.458999633789062,-3.2750000953674316
1558054322183,-3.3420000076293945,11.300999641418457,2.930000066757202
1558054322276,-1.8960000276565552,0.32499998807907104,-0.9480000138282776
1558054322336,-5.085000038146973,-5.5929999351501465,5.620999813079834
1558054322439,-0.5929999947547913,15.486000061035156,3.063999891281128
1558054322588,4.261000156402588,5.343999862670898,0.6600000262260437
1558054322636,-0.14300000667572021,-7.679999828338623,0.5740000009536743
1558054322730,-1.6369999647140503,-1.5509999990463257,2.4130001068115234
1558054322792,3.246000051498413,6.1579999923706055,4.394999980926514
1558054322848,10.515000343322754,32.86800003051758,0.4880000054836273
1558054322898,-2.3269999027252197,15.189000129699707,2.996999979019165
1558054322983,-1.7710000276565552,4.874000072479248,0.45899999141693115
1558054323074,0.008999999612569809,-5.947000026702881,4.883999824523926
1558054323119,-5.745999813079834,-2.3550000190734863,0.4020000100135803
1558054323165,2.010999917984009,14.029999732971191,6.961999893188477
1558054323315,1.5509999990463257,10.803000450134277,0.9279999732971191
1558054323405,3.427999973297119,-3.0350000858306885,0.0
1558054323452,-0.05700000002980232,-4.730999946594238,5.315000057220459
1558054323498,0.1340000033378601,4.625,2.078000068664551
1558054323647,1.034000039100647,19.39299964904785,6.501999855041504
1558054323695,-6.043000221252441,3.821000099182129,0.9279999732971191
1558054323793,-0.28700000047683716,-3.821000099182129,1.8960000276565552
1558054323851,-3.0929999351501465,-0.6510000228881836,1.8860000371932983
1558054323912,1.187000036239624,10.170000076293945,8.9350004196167
1558054323960,2.4509999752044678,31.07699966430664,6.914000034332275
1558054324057,0.4300000071525574,14.135000228881836,1.9819999933242798
1558054324106,3.5810000896453857,-0.6600000262260437,-1.2730000019073486
1558054324154,-0.37299999594688416,-7.086999893188477,3.6480000019073486
1558054324227,2.1059999465942383,3.505000114440918,1.503000020980835
1558054324285,1.312000036239624,24.450000762939453,5.6020002365112305
1558054324382,5.0370001792907715,26.393999099731445,2.872999906539917
1558054324431,-1.7039999961853027,8.878000259399414,0.06700000166893005
1558054324492,-1.7519999742507935,-3.3989999294281006,-0.9480000138282776
1558054324549,-2.3550000190734863,-2.8440001010894775,4.078999996185303
1558054324615,2.5179998874664307,5.50600004196167,5.123000144958496
1558054324834,3.0739998817443848,1.6950000524520874,-0.2290000021457672
1558054324881,0.33500000834465027,-6.445000171661377,3.2750000953674316
1558054325151,-3.9739999771118164,12.583999633789062,3.2750000953674316
1558054325246,-0.3919999897480011,0.9760000109672546,-2.441999912261963
1558054325306,-1.7430000305175781,-6.8379998207092285,4.797999858856201
1558054325369,-1.1009999513626099,2.441999912261963,3.7060000896453857
1558054325419,-1.4170000553131104,20.656999588012695,4.855000019073486
1558054325540,3.1700000762939453,6.196000099182129,0.6700000166893005
1558054325702,-0.4300000071525574,-2.125999927520752,3.2079999446868896
1558054325752,3.1019999980926514,3.7249999046325684,5.2769999504089355
1558054325852,9.701000213623047,27.610000610351562,3.3610000610351562
1558054325916,1.378999948501587,18.905000686645508,0.0860000029206276
1558054325981,-3.572000026702881,6.7129998207092285,-0.4020000100135803
1558054326032,-2.010999917984009,-6.348999977111816,4.683000087738037
1558054326083,-1.7999999523162842,0.4690000116825104,1.6180000305175781
1558054326142,2.0390000343322754,17.009000778198242,7.010000228881836
1558054326202,2.5179998874664307,35.63600158691406,-0.12399999797344208
1558054326562,4.040999889373779,23.673999786376953,7.479000091552734
1558054326610,6.464000225067139,27.638999938964844,2.010999917984009
1558054326669,-5.2769999504089355,8.819999694824219,-0.6510000228881836
1558054326728,-2.240999937057495,-2.7769999504089355,-0.2770000100135803
1558054326937,-6.51200008392334,27.70599937438965,9.385000228881836
1558054326991,5.745999813079834,14.565999984741211,1.6369999647140503
1558054327103,2.6429998874664307,2.3269999027252197,-2.3269999027252197
1558054327155,-1.4550000429153442,-8.293000221252441,3.322999954223633
1558054327208,-1.781000018119812,2.384000062942505,0.3540000021457672
1558054327260,2.7100000381469727,13.991999626159668,5.831999778747559
1558054327323,8.121000289916992,34.027000427246094,7.699999809265137
1558054327387,-1.378999948501587,11.223999977111816,1.6369999647140503
1558054327662,3.4760000705718994,27.226999282836914,7.125
1558054327763,-0.5450000166893005,24.775999069213867,6.434999942779541
1558054327816,2.2209999561309814,5.6020002365112305,-0.4020000100135803
1558054327867,0.5170000195503235,-7.767000198364258,1.1579999923706055
1558054327917,0.6320000290870667,-0.8040000200271606,3.303999900817871
1558054328019,5.908999919891357,3.3519999980926514,4.13700008392334
1558054328069,8.734000205993652,35.654998779296875,6.493000030517578
1558054328121,2.9489998817443848,17.94700050354004,4.031000137329102
1558054328182,-3.9170000553131104,3.5139999389648438,0.6700000166893005
1558054328417,4.616000175476074,5.553999900817871,0.6890000104904175
1558054328521,5.89900016784668,13.312000274658203,3.4089999198913574
1558054328575,1.2059999704360962,-2.0490000247955322,-0.16200000047683716
1558054328682,-1.3880000114440918,-4.951000213623047,2.5369999408721924
1558054328811,1.781000018119812,17.89900016784668,8.829999923706055
1558054328865,13.27299976348877,27.170000076293945,-1.809999942779541
1558054328919,-8.513999938964844,10.227999687194824,3.3420000076293945
1558054328984,-1.7430000305175781,-0.4300000071525574,-0.2290000021457672
1558054329049,-2.8340001106262207,-5.448999881744385,5.142000198364258
1558054329115,2.9489998817443848,7.431000232696533,7.374000072479248
1558054329222,1.062999963760376,28.319000244140625,1.5509999990463257
1558054329382,0.5740000009536743,-6.90500020980835,1.1579999923706055
1558054329434,-3.121999979019165,1.7519999742507935,4.548999786376953
1558054329539,4.48199987411499,6.348999977111816,4.01200008392334
1558054329607,11.673999786376953,38.691001892089844,-5.745999813079834
1558054329672,-2.4230000972747803,13.866999626159668,4.35699987411499
1558054329724,-2.671999931335449,3.063999891281128,1.2730000019073486
1558054329846,-5.372000217437744,-0.7850000262260437,3.447000026702881
1558054329907,3.427999973297119,17.764999389648438,0.1340000033378601
1558054329968,-2.9010000228881836,35.483001708984375,-1.7230000495910645
1558054330129,2.7960000038146973,-5.410999774932861,1.9249999523162842
1558054330242,2.8440001010894775,6.252999782562256,3.0739998817443848
1558054330311,8.59000015258789,28.961000442504883,2.0390000343322754
1558054330380,0.1720000058412552,18.100000381469727,3.447000026702881
1558054330447,-3.236999988555908,8.991999626159668,0.01899999938905239
1558054330523,-2.1449999809265137,-5.611999988555908,1.2350000143051147
1558054330641,2.193000078201294,11.347999572753906,6.894999980926514
1558054330710,-1.1770000457763672,37.58000183105469,1.1200000047683716
1558054330778,3.677000045776367,10.276000022888184,0.2290000021457672
1558054330835,1.7230000495910645,-2.930000066757202,0.2770000100135803
1558054330891,-1.090999960899353,-3.936000108718872,3.7820000648498535
1558054330960,1.5989999771118164,4.270999908447266,2.4230000972747803
1558054331025,3.2170000076293945,14.595000267028809,8.388999938964844
1558054331085,6.493000030517578,28.472000122070312,1.2640000581741333
1558054331149,-3.734999895095825,7.2210001945495605,-0.29600000381469727
1558054331248,-2.4700000286102295,-2.4700000286102295,0.37299999594688416
1558054331305,-2.509000062942505,-3.1410000324249268,3.4089999198913574
1558054331362,2.4700000286102295,3.303999900817871,7.671000003814697
1558054331545,1.9630000591278076,3.0160000324249268,-0.6600000262260437
1558054331618,0.1340000033378601,-7.315999984741211,3.993000030517578
1558054331688,-1.36899995803833,-1.1679999828338623,0.4690000116825104
1558054331748,4.739999771118164,4.683000087738037,5.697999954223633
1558054331819,11.147000312805176,33.222999572753906,1.7999999523162842
1558054331888,-1.3589999675750732,14.920999526977539,2.375
1558054331956,-3.7730000019073486,3.562000036239624,3.0260000228881836
1558054332014,-0.04699999839067459,-5.085000038146973,5.085000038146973
1558054332073,-2.9489998817443848,-0.4399999976158142,1.5509999990463257
1558054332255,1.972000002861023,42.0620002746582,-1.656000018119812
1558054332311,2.365000009536743,6.8470001220703125,0.01899999938905239
1558054332368,2.3550000190734863,-6.1479997634887695,0.621999979019165
1558054332425,0.8230000138282776,-2.259999990463257,2.5759999752044678
1558054332541,7.785999774932861,28.989999771118164,1.7519999742507935
1558054332706,-5.085000038146973,6.013999938964844,-0.4399999976158142
1558054332761,-3.0450000762939453,-5.343999862670898,1.062999963760376
1558054332814,-2.8529999256134033,-2.9779999256134033,3.734999895095825
1558054332869,5.285999774932861,10.055999755859375,6.7129998207092285
1558054333044,4.635000228881836,13.76200008392334,0.32499998807907104
1558054333287,2.068000078201294,16.02199935913086,6.521999835968018
1558054333568,-1.5700000524520874,-2.614000082015991,4.318999767303467
1558054333614,1.5889999866485596,5.142000198364258,6.110000133514404
1558054333661,-1.1009999513626099,23.233999252319336,4.453000068664551
1558054333753,7.230000019073486,23.444000244140625,-0.11400000005960464
1558054333798,1.1009999513626099,0.44999998807907104,1.3209999799728394
1558054333891,0.3059999942779541,-6.809000015258789,1.9249999523162842
1558054334028,3.265000104904175,8.465999603271484,5.7270002365112305
1558054334120,-0.29600000381469727,12.449999809265137,5.074999809265137
1558054334252,-2.115999937057495,-5.0279998779296875,6.004000186920166
1558054334340,-2.5950000286102295,2.700000047683716,2.2790000438690186
1558054334399,2.4130001068115234,19.259000778198242,4.423999786376953
1558054334458,4.461999893188477,30.71299934387207,1.49399995803833
1558054334518,2.700000047683716,5.564000129699707,-0.23899999260902405
1558054334606,0.2199999988079071,-5.401000022888184,1.7710000276565552
1558054334666,0.3160000145435333,-3.5239999294281006,1.8860000371932983
1558054334728,3.0450000762939453,7.61299991607666,9.355999946594238
1558054334787,15.170000076293945,31.038999557495117,-5.458000183105469
1558054334848,-2.8919999599456787,16.232999801635742,2.739000082015991
1558054334918,-4.367000102996826,3.802000045776367,-0.29600000381469727
1558054335043,-6.052000045776367,-0.5649999976158142,2.996999979019165
1558054335120,2.4130001068115234,25.799999237060547,7.9770002365112305
1558054335184,3.3610000610351562,23.893999099731445,2.2119998931884766
1558054335247,-1.2640000581741333,6.798999786376953,0.257999986410141
1558054335309,1.4459999799728394,-7.498000144958496,0.4300000071525574
1558054335373,0.5260000228881836,-2.930000066757202,3.1019999980926514
1558054335463,3.878000020980835,4.375999927520752,2.9210000038146973
1558054335524,4.940999984741211,31.584999084472656,8.244999885559082
1558054335589,0.5170000195503235,19.5939998626709,3.2170000076293945
1558054335654,-2.441999912261963,2.499000072479248,0.3440000116825104
1558054335719,-4.040999889373779,-6.866000175476074,1.9630000591278076
1558054335781,-3.619999885559082,-0.5929999947547913,-0.23899999260902405
1558054335901,-1.406999945640564,41.42100143432617,3.3420000076293945
1558054335992,3.4189999103546143,8.637999534606934,3.619999885559082
1558054336055,1.1390000581741333,-7.239999771118164,1.1200000047683716
1558054336116,0.1720000058412552,-3.9070000648498535,2.5759999752044678
1558054336304,3.4660000801086426,21.826000213623047,1.684999942779541
1558054336430,-2.4700000286102295,-5.267000198364258,1.934000015258789
1558054336495,-4.3379998207092285,-1.8380000591278076,3.390000104904175
1558054336561,6.7230000495910645,6.493000030517578,7.355000019073486
1558054336627,2.431999921798706,35.83700180053711,13.263999938964844
1558054336759,1.49399995803833,-1.6369999647140503,-0.4690000116825104
1558054336847,-0.3160000145435333,-4.874000072479248,2.5369999408721924
1558054337048,10.237000465393066,35.387001037597656,-1.2450000047683716
1558054337116,-4.874000072479248,9.164999961853027,-0.4779999852180481
1558054337166,-2.193000078201294,-1.7039999961853027,1.6180000305175781
1558054337233,-2.125999927520752,-4.251999855041504,3.687000036239624
1558054337361,-2.1640000343322754,29.47800064086914,3.993000030517578
1558054337624,-3.4760000705718994,-2.2980000972747803,0.9190000295639038
1558054337692,6.004000186920166,8.96399974822998,6.521999835968018
1558054337827,-3.246000051498413,16.059999465942383,2.4609999656677246
1558054337947,-1.062999963760376,-2.825000047683716,3.5329999923706055
1558054338079,2.7860000133514404,14.49899959564209,5.123000144958496
1558054338146,-6.798999786376953,36.74700164794922,7.2210001945495605
1558054338215,2.5850000381469727,9.366000175476074,-0.1720000058412552
1558054338287,1.5219999551773071,-2.2690000534057617,1.6660000085830688
1558054338358,1.2350000143051147,-7.785999774932861,1.4259999990463257
1558054338429,1.1200000047683716,4.8460001945495605,3.8499999046325684
1558054338476,5.802999973297119,26.115999221801758,6.38700008392334
1558054338631,-2.4700000286102295,6.071000099182129,-1.062999963760376
1558054338810,-0.11400000005960464,7.51800012588501,6.78000020980835
1558054338881,5.888999938964844,40.6349983215332,-1.0049999952316284
1558054338953,4.367000102996826,14.538000106811523,1.49399995803833
1558054339204,7.133999824523926,17.89900016784668,8.64799976348877
1558054339276,10.534000396728516,33.45199966430664,-0.2770000100135803
1558054339348,-4.616000175476074,9.42300033569336,2.0390000343322754
1558054339488,-2.7290000915527344,-6.589000225067139,5.09499979019165
1558054339539,-3.111999988555908,3.006999969482422,4.75
1558054339598,3.628999948501587,23.482999801635742,1.6369999647140503
1558054339669,7.258999824523926,23.836999893188477,1.7999999523162842
1558054339742,2.2690000534057617,5.918000221252441,-0.8519999980926514
1558054339815,0.4020000100135803,-6.664999961853027,1.6180000305175781
1558054339867,-0.9190000295639038,-3.3989999294281006,3.0160000324249268
1558054339948,2.565999984741211,6.78000020980835,4.309000015258789
1558054340059,1.0429999828338623,19.507999420166016,2.9110000133514404
1558054340125,-2.614000082015991,4.567999839782715,-0.4779999852180481
1558054340216,-2.134999990463257,-5.918000221252441,2.193000078201294
1558054340284,-3.687000036239624,-1.9630000591278076,2.4130001068115234
1558054340527,0.7369999885559082,-1.0429999828338623,-1.1970000267028809
1558054340595,0.02800000086426735,-5.918000221252441,2.6429998874664307
1558054340661,-2.441999912261963,0.29600000381469727,1.7039999961853027
1558054340722,7.671000003814697,9.13599967956543,2.9489998817443848
1558054340785,2.805999994277954,37.14899826049805,7.939000129699707
1558054340866,1.2350000143051147,11.57800006866455,-0.9279999732971191
1558054340922,-3.0739998817443848,1.3209999799728394,3.2170000076293945
1558054340983,-1.49399995803833,-5.888999938964844,3.7820000648498535
1558054341053,-2.0390000343322754,2.872999906539917,2.700000047683716
1558054341255,1.2059999704360962,5.775000095367432,0.8999999761581421
1558054341313,0.9380000233650208,-6.8470001220703125,1.656000018119812
1558054341378,-0.04699999839067459,-3.380000114440918,1.781000018119812
1558054341455,3.437999963760376,9.385000228881836,10.77400016784668
1558054341515,9.413999557495117,29.42099952697754,10.447999954223633
1558054341577,2.7860000133514404,16.059999465942383,4.664000034332275
1558054341649,-5.01800012588501,2.9210000038146973,1.7519999742507935
1558054341781,-4.702000141143799,-0.5929999947547913,3.1600000858306885
1558054341842,6.550000190734863,13.005000114440918,-5.190000057220459
1558054341913,-1.8480000495910645,40.03200149536133,1.9819999933242798
1558054341973,4.539000034332275,9.720000267028809,2.240999937057495
1558054342039,3.494999885559082,-2.0869998931884766,-0.06700000166893005
1558054342109,-0.7179999947547913,-5.401000022888184,3.13100004196167
1558054342181,-3.0160000324249268,2.7860000133514404,2.384000062942505
1558054342237,6.8379998207092285,18.80900001525879,6.0329999923706055
1558054342313,6.607999801635742,30.368999481201172,-0.3440000116825104
1558054342372,-3.063999891281128,8.503999710083008,1.2350000143051147
1558054342441,-3.2079999446868896,-1.5889999866485596,1.8480000495910645
1558054342514,-1.9249999523162842,-4.40500020980835,4.051000118255615
1558054342641,6.348999977111816,25.579999923706055,7.948999881744385
1558054342701,6.052000045776367,25.111000061035156,1.2829999923706055
1558054342770,0.8809999823570251,3.505000114440918,0.7369999885559082
1558054342840,1.2829999923706055,-8.868000030517578,0.20999999344348907
1558054342905,1.225000023841858,-2.7290000915527344,1.1009999513626099
1558054342969,2.930000066757202,8.39900016784668,12.095000267028809
1558054343031,15.581999778747559,29.89900016784668,-7.928999900817871
1558054343096,-2.0969998836517334,16.46299934387207,5.390999794006348
1558054343438,-5.01800012588501,40.500999450683594,8.848999977111816
1558054343502,7.728000164031982,10.562999725341797,2.5759999752044678
1558054343560,2.546999931335449,-3.1500000953674316,-0.6510000228881836
1558054343623,1.503000020980835,-2.8440001010894775,2.930000066757202
1558054343709,-0.6320000290870667,3.0829999446868896,6.061999797821045
1558054343774,4.960000038146973,20.9060001373291,4.375999927520752
1558054343830,5.869999885559082,31.775999069213867,1.4739999771118164
1558054343914,-1.7899999618530273,6.24399995803833,-0.1340000033378601
1558054343980,-2.068000078201294,-0.9190000295639038,2.2309999465942383
1558054344084,1.253999948501587,3.944999933242798,0.257999986410141
1558054344415,-1.8669999837875366,-2.9110000133514404,0.6990000009536743
1558054344481,8.532999992370605,10.362000465393066,1.406999945640564
1558054344547,8.916000366210938,33.012001037597656,5.229000091552734
1558054344613,-0.10499999672174454,16.731000900268555,1.1200000047683716
1558054344745,-1.531999945640564,-6.656000137329102,1.3209999799728394
1558054344811,-3.111999988555908,-0.5170000195503235,3.619999885559082
1558054344877,4.710999965667725,16.003000259399414,1.1009999513626099
1558054345009,5.09499979019165,8.848999977111816,1.0429999828338623
1558054345075,2.2019999027252197,-2.441999912261963,0.29600000381469727
1558054345115,0.1809999942779541,-8.303000450134277,2.6040000915527344
1558054345275,5.678999900817871,24.871000289916992,7.479000091552734
1558054345375,-0.4300000071525574,13.95300006866455,0.23899999260902405
1558054345395,-3.246000051498413,6.636000156402588,-0.746999979019165
1558054345415,-1.8480000495910645,5.171000003814697,-1.9630000591278076
1558054345435,-0.9760000109672546,4.021999835968018,-0.2770000100135803
1558054345455,-0.7179999947547913,-0.05700000002980232,2.0299999713897705
1558054345475,-2.7100000381469727,-3.6579999923706055,-0.2770000100135803
1558054345495,-2.4030001163482666,-6.263000011444092,2.0299999713897705
1558054345515,-1.6660000085830688,-4.7779998779296875,5.420000076293945
1558054345555,-2.8440001010894775,-0.6510000228881836,4.625
1558054345575,-3.188999891281128,0.8040000200271606,3.4189999103546143
1558054345595,1.628000020980835,4.519999980926514,4.769000053405762
1558054345615,5.553999900817871,9.633999824523926,7.077000141143799
1558054345675,-2.680999994277954,28.243000030517578,1.0429999828338623
1558054345716,5.831999778747559,30.454999923706055,-3.0450000762939453
1558054345756,6.004000186920166,10.907999992370605,2.4130001068115234
1558054345776,2.3459999561309814,4.7210001945495605,1.9819999933242798
1558054345796,2.6519999504089355,0.6890000104904175,1.1770000457763672
1558054345875,-0.3440000116825104,-4.855000019073486,1.934000015258789
1558054345895,0.23899999260902405,-3.188999891281128,3.2939999103546143
1558054345915,0.41100001335144043,-1.9249999523162842,4.510000228881836
1558054345935,-2.9779999256134033,-1.2350000143051147,3.2079999446868896
1558054345955,-3.6389999389648438,1.340000033378601,1.406999945640564
1558054346076,13.541999816894531,36.60300064086914,-0.0949999988079071
1558054346115,-1.2829999923706055,16.70199966430664,6.531000137329102
1558054346135,-6.099999904632568,11.550000190734863,0.8040000200271606
1558054346156,-9.692000389099121,6.4070000648498535,-0.7749999761581421
1558054346175,-4.864999771118164,4.367000102996826,0.257999986410141
1558054346216,-3.6010000705718994,-0.06700000166893005,1.3880000114440918
1558054346259,-1.2450000047683716,-5.429999828338623,3.390000104904175
1558054346275,-1.4459999799728394,-4.855000019073486,2.8440001010894775
1558054346375,3.2269999980926514,8.96399974822998,2.1540000438690186
1558054346395,2.0390000343322754,14.42300033569336,2.068000078201294
1558054346415,-3.562000036239624,27.6299991607666,7.239999771118164
1558054346435,-4.7210001945495605,34.2760009765625,6.693999767303467
1558054346475,3.6679999828338623,25.944000244140625,2.2790000438690186
1558054346495,4.2230000495910645,17.79400062561035,1.3589999675750732
1558054346515,6.2820000648498535,11.175999641418457,1.6660000085830688
1558054346555,2.2209999561309814,1.2920000553131104,-0.20100000500679016
1558054346575,2.499000072479248,-1.4170000553131104,-0.1720000058412552
1558054346594,2.7100000381469727,-6.11899995803833,0.05700000002980232
1558054346615,1.5609999895095825,-9.039999961853027,0.5550000071525574
1558054346635,0.8519999980926514,-6.607999801635742,0.8709999918937683
1558054346675,1.034000039100647,-2.5280001163482666,3.7920000553131104
1558054346695,-3.811000108718872,-1.1970000267028809,2.5369999408721924
1558054346755,1.3209999799728394,13.34000015258789,5.046999931335449
1558054346775,5.697999954223633,23.981000900268555,8.159000396728516
1558054346795,11.300999641418457,33.41400146484375,2.384000062942505
1558054346815,15.055000305175781,36.948001861572266,2.6429998874664307
1558054346835,4.586999893188477,27.582000732421875,5.074999809265137
1558054346895,-4.423999786376953,7.34499979019165,0.5450000166893005
1558054346915,-4.251999855041504,7.125,-1.7999999523162842
1558054346975,-2.490000009536743,-4.28000020980835,0.6600000262260437
1558054346995,-1.5700000524520874,-6.129000186920166,2.565999984741211
1558054347015,-1.2640000581741333,-5.074999809265137,4.510000228881836
1558054347035,-1.4550000429153442,-3.1019999980926514,3.437999963760376
1558054347055,-2.1540000438690186,-1.6660000085830688,1.7230000495910645
1558054347075,-1.7519999742507935,0.9570000171661377,1.2350000143051147
1558054347095,0.6510000228881836,3.3519999980926514,6.73199987411499
1558054347115,2.0390000343322754,6.8379998207092285,7.363999843597412
1558054347175,-6.185999870300293,29.89900016784668,2.739000082015991
1558054347195,-1.225000023841858,38.39400100708008,4.664000034332275
1558054347215,0.0,28.788000106811523,-0.1809999942779541
1558054347255,2.98799991607666,13.10099983215332,2.2690000534057617
1558054347275,2.308000087738037,8.581000328063965,1.7999999523162842
1558054347295,1.8569999933242798,4.7210001945495605,-0.4399999976158142
1558054347315,3.0739998817443848,0.5360000133514404,-1.2920000553131104
1558054347355,1.944000005722046,-6.656000137329102,1.1970000267028809
1558054347376,1.6369999647140503,-6.51200008392334,2.2690000534057617
1558054347395,2.614000082015991,-5.113999843597412,3.0260000228881836
1558054347415,-0.8999999761581421,-4.098999977111816,2.1059999465942383
1558054347435,-2.9110000133514404,-2.2790000438690186,1.4550000429153442
1558054347455,-3.2750000953674316,0.2290000021457672,3.1019999980926514
1558054347475,-1.1770000457763672,1.9529999494552612,6.320000171661377
1558054347495,-0.7080000042915344,9.13599967956543,6.1479997634887695
1558054347515,-0.8420000076293945,18.07200050354004,9.777999877929688
1558054347535,2.6519999504089355,29.965999603271484,5.046999931335449
1558054347555,16.65399932861328,39.24700164794922,-4.797999858856201
1558054347575,4.874000072479248,35.50199890136719,1.8860000371932983
1558054347595,2.872999906539917,24.076000213623047,2.930000066757202
1558054347615,-3.0160000324249268,15.77299976348877,1.9249999523162842
1558054347675,-2.815000057220459,5.936999797821045,-1.5509999990463257
1558054347695,-2.930000066757202,2.1449999809265137,0.5450000166893005
1558054347736,-3.572000026702881,-5.056000232696533,2.068000078201294
1558054347755,-2.680999994277954,-5.783999919891357,4.242000102996826
1558054347775,-2.0869998931884766,-5.01800012588501,5.229000091552734
1558054347795,-3.1700000762939453,-1.5410000085830688,2.9590001106262207
1558054347815,-3.8399999141693115,0.5839999914169312,2.1540000438690186
1558054347835,-2.5850000381469727,4.078999996185303,4.635000228881836
1558054347855,2.1540000438690186,7.785999774932861,7.593999862670898
1558054347875,1.090999960899353,14.25,5.775000095367432
1558054347895,-1.2829999923706055,20.886999130249023,5.381999969482422
1558054347914,-2.240999937057495,30.94300079345703,-0.8330000042915344
1558054347935,0.05700000002980232,35.731998443603516,3.8499999046325684
1558054347955,-0.02800000086426735,26.805999755859375,6.664999961853027
1558054347975,2.4700000286102295,17.14299964904785,3.763000011444092
1558054347995,3.2170000076293945,13.569999694824219,-0.5740000009536743
1558054348015,1.684999942779541,9.567000389099121,-1.1299999952316284
1558054348035,2.5850000381469727,3.9070000648498535,-0.3160000145435333
1558054348095,0.8140000104904175,-7.239999771118164,0.8519999980926514
1558054348115,0.0860000029206276,-6.521999835968018,3.5239999294281006
1558054348135,2.0299999713897705,-4.5970001220703125,3.0260000228881836
1558054348155,-0.5170000195503235,-2.6519999504089355,2.0969998836517334
1558054348176,-2.5369999408721924,-0.5929999947547913,1.090999960899353
1558054348195,-2.193000078201294,2.240999937057495,2.2880001068115234
1558054348215,3.2170000076293945,6.885000228881836,3.821000099182129
1558054348235,4.375999927520752,10.227999687194824,5.583000183105469
1558054348255,6.11899995803833,20.3700008392334,8.446999549865723
1558054348275,7.296999931335449,28.415000915527344,9.538000106811523
1558054348295,11.156999588012695,35.5880012512207,4.683000087738037
1558054348315,7.0289998054504395,36.479000091552734,-2.2309999465942383
1558054348335,0.9959999918937683,20.284000396728516,2.881999969482422
1558054348375,-4.414999961853027,8.734000205993652,1.1299999952316284
1558054348395,-5.745999813079834,6.043000221252441,1.5700000524520874
1558054348415,-5.256999969482422,4.375999927520752,2.125999927520752
1558054348435,-4.797999858856201,1.6759999990463257,1.1679999828338623
1558054348455,-3.7820000648498535,-3.936000108718872,-1.1299999952316284
1558054348521,-1.8289999961853027,-1.6660000085830688,3.9739999771118164
1558054348653,-0.1720000058412552,31.85300064086914,8.925000190734863
1558054348719,2.4230000972747803,10.343000411987305,0.640999972820282
1558054348859,0.45899999141693115,-6.1479997634887695,0.746999979019165
1558054348917,-1.7999999523162842,2.308000087738037,1.1770000457763672
1558054348983,7.382999897003174,12.12399959564209,3.734999895095825
1558054349049,13.800000190734863,38.22200012207031,-2.4700000286102295
1558054349115,-3.619999885559082,7.326000213623047,1.8380000591278076
1558054349181,-5.315000057220459,-0.3059999942779541,1.656000018119812
1558054349247,-1.7230000495910645,-3.3610000610351562,3.8499999046325684
1558054349379,-4.051000118255615,32.284000396728516,9.107000350952148
1558054349445,5.63100004196167,22.639999389648438,0.4880000054836273
1558054349577,2.4700000286102295,-9.67199993133545,3.1500000953674316
1558054352065,3.687000036239624,14.881999969482422,0.8610000014305115
1558054352150,-4.683000087738037,1.0049999952316284,2.9489998817443848
1558054352170,-4.5970001220703125,-3.7820000648498535,-0.257999986410141
1558054352190,-3.4570000171661377,-6.1479997634887695,2.115999937057495
1558054352210,-2.1540000438690186,-5.918000221252441,4.270999908447266
1558054352230,-2.499000072479248,-3.312999963760376,4.548999786376953
1558054352250,-3.505000114440918,-1.034000039100647,4.2129998207092285
1558054352270,-3.0160000324249268,1.5509999990463257,3.753999948501587
1558054352290,-1.0429999828338623,6.320000171661377,5.190000057220459
1558054352315,2.6429998874664307,16.14699935913086,8.704999923706055
1558054352330,3.3989999294281006,20.312999725341797,7.699999809265137
1558054352382,3.74399995803833,36.08599853515625,-4.165999889373779
1558054352390,3.13100004196167,32.92599868774414,-2.068000078201294
1558054352410,2.5280001163482666,21.280000686645508,-0.4300000071525574
1558054352430,2.9489998817443848,16.93199920654297,-0.8330000042915344
1558054352450,2.9010000228881836,12.555000305175781,-0.28700000047683716
1558054352470,1.3209999799728394,5.947000026702881,-1.0149999856948853
1558054352490,2.240999937057495,3.303999900817871,-1.819000005722046
1558054352590,0.5170000195503235,-6.080999851226807,2.7960000038146973
1558054352610,-1.8380000591278076,-5.296000003814697,2.490000009536743
1558054352630,-3.763000011444092,-2.9010000228881836,2.805999994277954
1558054352650,-4.184999942779541,2.25,4.539000034332275
1558054352670,1.312000036239624,7.039000034332275,5.545000076293945
1558054352711,5.429999828338623,20.32200050354004,5.4679999351501465
1558054352750,12.498000144958496,33.5,1.684999942779541
1558054352777,10.371999740600586,28.184999465942383,-1.5889999866485596
1558054352790,5.572999954223633,24.211000442504883,-1.819000005722046
1558054352811,2.930000066757202,14.62399959564209,0.20100000500679016
1558054352830,-0.42100000381469727,12.354000091552734,1.350000023841858
1558054352850,-1.9919999837875366,9.42300033569336,-0.11400000005960464
1558054352890,-3.7820000648498535,3.8970000743865967,2.9489998817443848
1558054352910,-4.5289998054504395,0.6890000104904175,0.8140000104904175
1558054352930,-4.13700008392334,-2.5950000286102295,-0.6029999852180481
1558054352951,-1.972000002861023,-5.583000183105469,3.5910000801086426
1558054352990,-3.2939999103546143,-2.5759999752044678,4.28000020980835
1558054353010,-3.0160000324249268,0.0949999988079071,1.4259999990463257
1558054353030,-3.371000051498413,2.6519999504089355,2.700000047683716
1558054353091,-0.8709999918937683,18.042999267578125,1.7519999742507935
1558054353151,1.350000023841858,36.1150016784668,-3.6010000705718994
1558054353173,3.2839999198913574,20.993000030517578,0.2290000021457672
1558054353191,5.813000202178955,15.22700023651123,1.7710000276565552
1558054353210,5.410999774932861,10.946000099182129,1.2059999704360962
1558054353238,2.2309999465942383,6.177000045776367,-0.28700000047683716
1558054353250,1.8480000495910645,3.5810000896453857,-0.765999972820282
1558054353270,2.308000087738037,0.8999999761581421,-0.1340000033378601
1558054353290,2.565999984741211,-2.193000078201294,0.9190000295639038
1558054353310,1.972000002861023,-6.043000221252441,1.1770000457763672
1558054353330,1.684999942779541,-6.894999980926514,2.0299999713897705
1558054353350,1.9919999837875366,-6.177000045776367,2.2119998931884766
1558054353371,1.2640000581741333,-4.510000228881836,2.9110000133514404
1558054353391,-3.1019999980926514,-3.4189999103546143,2.7860000133514404
1558054353437,-6.185999870300293,6.636000156402588,13.494000434875488
1558054353450,-2.1740000247955322,18.5310001373291,5.123000144958496
1558054353470,5.171000003814697,27.878999710083008,1.350000023841858
1558054353490,18.273000717163086,32.198001861572266,0.7080000042915344
1558054353550,-0.11400000005960464,17.43899917602539,5.074999809265137
1558054353570,-3.4189999103546143,14.336000442504883,0.06700000166893005
1558054353590,-1.2350000143051147,11.82699966430664,-0.1720000058412552
1558054353610,-0.2290000021457672,7.498000144958496,0.0860000029206276
1558054353634,-1.7139999866485596,5.448999881744385,-0.5170000195503235
1558054353690,-2.6519999504089355,-3.6480000019073486,2.499000072479248
1558054353711,-2.3459999561309814,-4.423999786376953,4.453000068664551
1558054353730,-2.700000047683716,-2.0969998836517334,4.107999801635742
1558054353750,-3.505000114440918,-0.4300000071525574,0.8610000014305115
1558054353770,-2.872999906539917,0.5070000290870667,1.4359999895095825
1558054353790,-2.25,5.199999809265137,4.683000087738037
1558054353833,1.090999960899353,21.729999542236328,8.053999900817871
1558054353870,0.02800000086426735,31.20199966430664,-2.556999921798706
1558054353899,3.246000051498413,28.06999969482422,4.769000053405762
1558054353911,3.197999954223633,20.246000289916992,5.620999813079834
1558054353931,3.619999885559082,15.543000221252441,3.5329999923706055
1558054354011,4.031000137329102,1.4739999771118164,-0.04699999839067459
1558054354031,3.572000026702881,-1.3209999799728394,0.11400000005960464
1558054354051,2.3940000534057617,-3.5429999828338623,1.062999963760376
1558054354071,0.5360000133514404,-4.635000228881836,0.16200000047683716
1558054354131,0.32499998807907104,-0.7749999761581421,3.0350000858306885
1558054354150,-1.1770000457763672,1.5219999551773071,3.944999933242798
1558054354171,-1.5609999895095825,4.2129998207092285,9.001999855041504
1558054354191,0.10499999672174454,8.130000114440918,8.704999923706055
1558054354211,3.572000026702881,21.9689998626709,5.918000221252441
1558054354295,4.089000225067139,23.281999588012695,6.464000225067139
1558054354311,1.8380000591278076,17.61199951171875,6.0329999923706055
1558054354331,-3.380000114440918,14.317000389099121,3.0260000228881836
1558054354390,-4.251999855041504,5.458000183105469,0.8610000014305115
1558054354451,-2.115999937057495,-2.7190001010894775,2.068000078201294
1558054354471,-2.4230000972747803,-4.01200008392334,4.586999893188477
1558054354510,-2.499000072479248,-1.781000018119812,1.819000005722046
1558054354590,2.739000082015991,10.782999992370605,1.350000023841858
1558054354630,-3.303999900817871,24.134000778198242,4.107999801635742
1558054354650,-3.6389999389648438,33.47200012207031,2.3269999027252197
1558054354671,3.86899995803833,40.91299819946289,-2.632999897003174
1558054354690,7.355000019073486,26.231000900268555,-2.6429998874664307
1558054354731,6.664999961853027,12.067000389099121,-0.28700000047683716
1558054354757,3.371000051498413,7.814000129699707,-0.9279999732971191
1558054354790,0.9480000138282776,2.2980000972747803,-0.16200000047683716
1558054354810,0.6790000200271606,-0.7369999885559082,1.781000018119812
1558054354830,0.03799999877810478,-4.539000034332275,3.303999900817871
1558054354850,-0.05700000002980232,-6.656000137329102,2.671999931335449
1558054354870,-0.4690000116825104,-7.182000160217285,2.0390000343322754
1558054354890,-1.2059999704360962,-4.758999824523926,1.819000005722046
1558054354910,-1.6660000085830688,-2.556999921798706,1.684999942779541
1558054354930,-1.8480000495910645,0.5450000166893005,2.757999897003174
1558054354954,1.531999945640564,5.85099983215332,7.0960001945495605
1558054354990,7.182000160217285,18.100000381469727,-0.9760000109672546
1558054355010,10.696999549865723,28.77899932861328,0.5170000195503235
1558054355030,10.640000343322754,31.097000122070312,6.185999870300293
1558054355050,8.9350004196167,31.422000885009766,0.8140000104904175
1558054355090,0.06700000166893005,17.545000076293945,2.565999984741211
1558054355110,-3.562000036239624,13.503000259399414,1.350000023841858
1558054355130,-5.486999988555908,8.848999977111816,0.4880000054836273
1558054355153,-5.01800012588501,6.263000011444092,-0.1340000033378601
1558054355190,-3.3610000610351562,1.1009999513626099,2.068000078201294
1558054355218,-2.6429998874664307,-2.4700000286102295,1.6080000400543213
1558054355250,-1.7899999618530273,-4.567999839782715,3.628999948501587
1558054355370,-0.28700000047683716,13.656999588012695,5.764999866485596
1558054355390,-1.0820000171661377,19.53700065612793,-1.809999942779541
1558054355430,-1.062999963760376,31.97800064086914,3.562000036239624
1558054355450,3.303999900817871,31.7189998626709,3.2750000953674316
1558054355470,5.97599983215332,25.599000930786133,1.0429999828338623
1558054355490,3.390000104904175,13.416999816894531,0.41100001335144043
1558054355510,3.878000020980835,9.930999755859375,-0.5070000290870667
1558054355576,0.32499998807907104,-1.4459999799728394,0.7749999761581421
1558054355642,1.3589999675750732,-4.913000106811523,0.4880000054836273
1558054360333,-554501.9375,-772874.25,-758250.625
1558054360358,3.4660000801086426,3.993000030517578,7.488999843597412
1558054360575,4.913000106811523,3.0929999351501465,8.321999549865723
1558054360596,4.367000102996826,2.8440001010894775,9.366000175476074
1558054360615,4.616000175476074,2.4800000190734863,9.432999610900879
1558054360635,4.625,0.8809999823570251,9.432999610900879
1558054360659,4.616000175476074,2.078000068664551,8.053999900817871
1558054360675,4.3379998207092285,2.183000087738037,8.130000114440918
1558054360735,1.7619999647140503,1.312000036239624,9.826000213623047
1558054360755,1.378999948501587,1.2730000019073486,10.428999900817871
1558054360815,1.7039999961853027,1.2640000581741333,9.777999877929688
1558054360835,1.8669999837875366,1.034000039100647,9.652999877929688
1558054360859,1.6950000524520874,0.9380000233650208,9.355999946594238
1558054360875,1.406999945640564,1.0429999828338623,9.20300006866455
1558054360895,1.034000039100647,1.090999960899353,8.96399974822998
1558054360975,1.1490000486373901,-0.257999986410141,10.60099983215332
1558054361035,0.32499998807907104,0.8709999918937683,10.399999618530273
1558054361075,0.9480000138282776,0.9279999732971191,9.625
1558054361095,1.0820000171661377,1.0820000171661377,9.25100040435791
1558054361136,1.0529999732971191,1.7619999647140503,9.270000457763672
1558054361156,0.9959999918937683,1.7999999523162842,9.45199966430664
1558054361236,0.3440000116825104,1.7230000495910645,9.767999649047852
1558054361264,-0.11400000005960464,1.9819999933242798,10.142000198364258
1558054361275,-0.03799999877810478,2.316999912261963,10.218000411987305
1558054361335,-0.14300000667572021,2.9679999351501465,9.510000228881836
1558054361355,-0.28700000047683716,3.236999988555908,8.857999801635742
1558054361385,-0.6600000262260437,3.5910000801086426,7.9770002365112305
1558054361395,-0.7269999980926514,3.677000045776367,7.958000183105469
1558054361415,-0.8610000014305115,3.944999933242798,7.958000183105469
1558054361475,-1.090999960899353,3.811000108718872,8.27400016784668
1558054361495,-1.0429999828338623,3.8499999046325684,8.255000114440918
1558054361555,-0.9959999918937683,3.4189999103546143,10.0649995803833
1558054361602,0.3540000021457672,4.883999824523926,8.532999992370605
1558054361615,0.7559999823570251,4.883999824523926,8.696000099182129
1558054361675,0.8230000138282776,5.056000232696533,7.986999988555908
1558054361695,0.6890000104904175,4.96999979019165,7.6519999504089355
1558054361716,0.6320000290870667,4.932000160217285,7.5269999504089355
1558054361736,1.312000036239624,4.855000019073486,7.585000038146973
1558054361755,1.7230000495910645,4.864999771118164,8.465999603271484
1558054361784,1.8480000495910645,4.442999839782715,9.126999855041504
1558054361795,1.8380000591278076,4.193999767303467,9.126999855041504
1558054361819,1.3309999704360962,4.098999977111816,9.232000350952148
1558054361835,1.1579999923706055,3.811000108718872,9.270000457763672
1558054361862,0.9570000171661377,3.687000036239624,9.039999961853027
1558054361876,0.746999979019165,3.687000036239624,8.991999626159668
1558054361917,0.49799999594688416,3.6389999389648438,9.20300006866455
1558054361935,0.4020000100135803,3.447000026702881,9.395000457763672
1558054361979,0.3160000145435333,3.628999948501587,9.42300033569336
1558054362055,1.0049999952316284,4.193999767303467,8.321999549865723
1558054362075,0.9570000171661377,4.232999801635742,8.532999992370605
1558054362095,0.8809999823570251,4.3379998207092285,8.560999870300293
1558054362135,0.9860000014305115,4.3379998207092285,8.532999992370605
1558054362155,1.0149999856948853,4.309000015258789,8.484999656677246
1558054362195,1.2730000019073486,4.367000102996826,8.484999656677246
1558054362215,1.225000023841858,4.28000020980835,8.581000328063965
1558054362243,0.8999999761581421,4.193999767303467,8.619000434875488
1558054362255,0.8999999761581421,4.184999942779541,8.513999938964844
1558054362275,0.9480000138282776,4.126999855041504,8.581000328063965
1558054362295,0.9380000233650208,4.193999767303467,8.484999656677246
1558054362318,0.7749999761581421,4.232999801635742,8.418000221252441
1558054362335,0.7179999947547913,4.193999767303467,8.418000221252441
1558054362355,0.6029999852180481,4.078999996185303,8.532999992370605
1558054362376,0.6600000262260437,4.126999855041504,8.819999694824219
1558054362396,0.7369999885559082,4.2129998207092285,9.107000350952148
1558054362442,0.49799999594688416,4.251999855041504,8.878000259399414
1558054362455,0.5450000166893005,4.251999855041504,8.829999923706055
1558054362476,0.1720000058412552,4.375999927520752,8.925000190734863
1558054362495,0.1720000058412552,4.318999767303467,8.848999977111816
1558054362515,0.16200000047683716,4.367000102996826,8.704999923706055
1558054362615,0.37299999594688416,4.710999965667725,8.484999656677246
1558054362640,0.28700000047683716,4.519999980926514,8.666999816894531
1558054362655,0.257999986410141,4.567999839782715,8.59000015258789
1558054362676,0.3059999942779541,4.664000034332275,8.560999870300293
1558054362702,0.0860000029206276,4.577000141143799,8.532999992370605
1558054362715,0.008999999612569809,4.6539998054504395,8.437000274658203
1558054362735,0.11400000005960464,4.758999824523926,8.437000274658203
1558054362755,0.2680000066757202,4.913000106811523,8.619000434875488
1558054362775,0.3630000054836273,4.855000019073486,8.581000328063965
1558054362795,0.2199999988079071,4.855000019073486,8.359999656677246
1558054362815,0.14300000667572021,4.797999858856201,8.388999938964844
1558054362837,-0.1809999942779541,4.826000213623047,8.244999885559082
1558054362855,0.32499998807907104,4.758999824523926,8.206999778747559
1558054362926,-0.28700000047683716,4.826000213623047,8.121000289916992
1558054362927,0.04699999839067459,5.046999931335449,7.890999794006348
1558054362935,-0.4880000054836273,5.218999862670898,7.019999980926514
1558054362955,-0.4880000054836273,5.085000038146973,7.2210001945495605
1558054362982,0.14300000667572021,4.940999984741211,9.126999855041504
1558054363057,0.4690000116825104,5.01800012588501,9.347000122070312
1558054363091,-0.28700000047683716,4.7210001945495605,8.359999656677246
1558054363385,-0.3440000116825104,4.539000034332275,8.303000450134277
1558054363568,-0.42100000381469727,3.936000108718872,9.154999732971191
1558054363596,-0.3630000054836273,3.888000011444092,9.682000160217285
1558054363616,-0.5740000009536743,3.562000036239624,9.767999649047852
1558054363655,-0.8709999918937683,3.572000026702881,9.194000244140625
1558054363700,-0.7080000042915344,3.74399995803833,8.418000221252441
1558054363716,-0.5839999914169312,3.8299999237060547,8.130000114440918
1558054363735,-0.4399999976158142,3.9739999771118164,8.015999794006348
1558054363762,-0.45899999141693115,4.021999835968018,8.206999778747559
1558054363776,-0.5070000290870667,4.031000137329102,8.532999992370605
1558054363815,-0.4020000100135803,3.993000030517578,8.696000099182129
1558054363835,-0.4020000100135803,4.078999996185303,8.704999923706055
1558054363857,-0.5170000195503235,3.936000108718872,8.83899974822998
1558054363896,-0.5649999976158142,3.9639999866485596,8.991999626159668
1558054363916,-0.5360000133514404,3.9549999237060547,9.01200008392334
1558054363944,-0.5839999914169312,3.9739999771118164,9.13599967956543
1558054363959,-0.6320000290870667,3.944999933242798,9.050000190734863
1558054363975,-0.5929999947547913,3.9739999771118164,8.954000473022461
1558054364006,-0.5740000009536743,3.878000020980835,9.069000244140625
1558054364035,-0.5450000166893005,3.811000108718872,9.116999626159668
1558054364055,-0.3919999897480011,3.888000011444092,8.954000473022461
1558054364095,-0.257999986410141,3.8970000743865967,9.020999908447266
1558054364116,-0.20100000500679016,4.031000137329102,8.704999923706055
1558054364163,-0.1809999942779541,4.126999855041504,8.743000030517578
1558054364228,-0.28700000047683716,4.078999996185303,8.8100004196167
1558054364241,-0.28700000047683716,4.031000137329102,8.762999534606934
1558054364301,-0.03799999877810478,4.051000118255615,8.9350004196167
1558054364436,-0.008999999612569809,3.9260001182556152,8.781999588012695
1558054364566,0.1340000033378601,3.7920000553131104,9.01200008392334
1558054364631,-0.15299999713897705,3.505000114440918,9.050000190734863
1558054364765,-0.04699999839067459,3.390000104904175,8.71500015258789
1558054364829,-0.02800000086426735,3.427999973297119,8.8100004196167
1558054364895,-0.06700000166893005,3.5329999923706055,9.25100040435791
