timestamp,AccX,AccY,AccZ,CompassSensor
1558050104678,,,,282.6794172367609
1558050104724,-0.4300000071525574,3.936000108718872,8.8100004196167,282.01684790613467
1558050104752,-0.4300000071525574,3.9549999237060547,8.819999694824219,282.29286951087323
1558050104810,-0.41100001335144043,4.021999835968018,8.819999694824219,282.46835756121834
1558050104873,,,,283.29671607356835
1558050104882,-0.37299999594688416,4.051000118255615,8.772000312805176,283.4714254823481
1558050104947,,,,283.6454040608867
1558050104952,-0.28700000047683716,4.031000137329102,8.991999626159668,282.4922222421784
1558050105004,,,,282.3179977768297
1558050105008,-0.24899999797344208,4.078999996185303,8.772000312805176,283.12694489155854
1558050105070,,,,283.0532129994682
1558050105077,-0.257999986410141,4.051000118255615,8.9350004196167,282.4227182371843
1558050105140,,,,282.6195164777399
1558050105141,-0.32499998807907104,4.070000171661377,8.8100004196167,283.40817110044463
1558050105203,,,,283.5954139063513
1558050105211,,4.070000171661377,,
1558050105212,-0.28700000047683716,,8.696000099182129,283.78980792031905
1558050105277,,4.070000171661377,,
1558050105278,-0.23899999260902405,,8.819999694824219,283.34049075595897
1558050105334,,,,282.5652506247842
1558050105338,-0.23899999260902405,4.078999996185303,8.791000366210938,282.7108087861863
1558050105400,,,,282.2612115840702
1558050105404,-0.2770000100135803,4.070000171661377,8.819999694824219,
1558050105405,,,,282.272693132065
1558050105466,,,,282.44620725774
1558050105470,-0.2290000021457672,4.051000118255615,8.696000099182129,282.50739892251414
1558050105532,,,,283.0536979428993
1558050105536,-0.1809999942779541,4.021999835968018,8.848999977111816,282.19215154137225
1558050105599,,,,282.16784289811613
1558050105602,,4.059999942779541,,
1558050105604,-0.12399999797344208,,8.88700008392334,282.06133292819896
1558050105667,,,,282.4838552604451
1558050105668,-0.1720000058412552,4.126999855041504,8.666999816894531,283.77334033423017
1558050105731,,,,283.97941397167864
1558050105735,-0.2770000100135803,4.021999835968018,8.906000137329102,283.02227907271725
1558050105796,,,,283.6557996088034
1558050105800,,3.993000030517578,8.9350004196167,
1558050105801,-0.2680000066757202,,,283.3393227936109
1558050105864,,,,283.7557525971174
1558050105866,,3.993000030517578,,
1558050105868,-0.3059999942779541,,8.954000473022461,283.8602066800944
1558050105929,,,,283.57115990460863
1558050105932,-0.19099999964237213,4.078999996185303,8.541999816894531,284.95033219238513
1558050105994,,,,285.05102284112945
1558050105998,-0.19099999964237213,3.993000030517578,8.972999572753906,283.14103557181625
1558050106060,,,,283.10266356905913
1558050106064,,4.051000118255615,8.781999588012695,
1558050106065,-0.14300000667572021,,,283.8476459622108
1558050106130,,,,283.98338914177555
1558050106132,-0.11400000005960464,4.107999801635742,8.83899974822998,
1558050106134,,,,284.0484125426741
1558050106192,,,,283.9689911030052
1558050106196,,4.118000030517578,,
1558050106197,-0.05700000002980232,,8.704999923706055,284.18277602402657
1558050106258,,,,283.79514912825005
1558050106262,-0.04699999839067459,4.078999996185303,8.848999977111816,283.07568432183757
1558050106324,,,,283.0179623931618
1558050106330,-0.11400000005960464,4.118000030517578,8.8100004196167,283.6752724781271
1558050106398,-0.06700000166893005,4.203999996185303,8.743000030517578,283.94770823355145
1558050106456,,,,285.2070585127184
1558050106460,,4.156000137329102,,
1558050106461,-0.11400000005960464,,8.734000205993652,285.1524784710608
1558050106522,,,,285.11687269491756
1558050106526,-0.0949999988079071,4.156000137329102,8.704999923706055,
1558050106527,,,,285.1170707704035
1558050106588,,,,284.86143045014825
1558050106598,-0.11400000005960464,4.193999767303467,8.666999816894531,285.3111301051019
1558050106655,,,,285.28819432986893
1558050106666,-0.07599999755620956,4.203999996185303,8.656999588012695,285.20137579532894
1558050106724,-0.05700000002980232,4.203999996185303,8.513999938964844,285.1023517127421
1558050106787,,,,285.67139526306335
1558050106790,0.01899999938905239,4.070000171661377,8.331999778747559,285.018866310517
1558050106852,,,,284.71904149652096
1558050106856,,4.021999835968018,8.675999641418457,
1558050106857,-0.1720000058412552,,,284.2324110087251
1558050106918,,,,283.5150157496311
1558050106922,-0.6600000262260437,4.01200008392334,8.484999656677246,286.4051624855978
1558050106985,,,,285.8066330086296
1558050106993,,3.936000108718872,,
1558050106994,0.05700000002980232,,8.475000381469727,281.98471869627895
1558050107056,-0.42100000381469727,3.5139999389648438,9.001999855041504,281.9307533716467
1558050107116,,,,278.0700913961345
1558050107120,,4.710999965667725,,
1558050107121,0.5550000071525574,,8.64799976348877,282.89313385589065
1558050107183,,,,281.67654056092795
1558050107186,,5.783999919891357,,
1558050107188,,,8.206999778747559,
1558050107189,1.4170000553131104,,,283.461740274105
1558050107249,,,,282.56945119112373
1558050107252,1.350000023841858,6.166999816894531,8.418000221252441,284.0932868855211
1558050107314,,,,282.9516754072668
1558050107319,1.684999942779541,6.080999851226807,8.552000045776367,280.5326956108151
1558050107382,,,,279.05533935371966
1558050107388,0.8040000200271606,5.181000232696533,8.628999710083008,278.8013997505678
1558050107447,,,,277.7532730714835
1558050107450,,5.142000198364258,,
1558050107452,,,7.6519999504089355,
1558050107453,0.8330000042915344,,,280.45929839799413
1558050107512,,,,279.0146997281581
1558050107517,0.8809999823570251,5.429999828338623,7.718999862670898,280.1774574720827
1558050107579,,,,278.8546069242022
1558050107584,0.8999999761581421,5.315000057220459,8.043999671936035,277.00385105537134
1558050107644,,,,276.6540497472183
1558050107649,,5.315000057220459,,
1558050107650,0.8999999761581421,,8.168999671936035,276.2380775663862
1558050107712,,,,275.81276851695867
1558050107716,,5.056000232696533,,
1558050107718,0.8330000042915344,,8.27400016784668,274.21034466597115
1558050107776,,,,274.37408479094387
1558050107780,0.8040000200271606,4.89300012588501,8.388999938964844,273.0982191143638
1558050107842,,,,273.6409527760022
1558050107846,0.7369999885559082,4.7779998779296875,8.206999778747559,273.79698844759116
1558050107911,,,,274.9463316999859
1558050107912,,4.635000228881836,,
1558050107913,0.8519999980926514,,8.321999549865723,273.1571431563335
1558050107975,,,,274.0427591444957
1558050107984,0.5839999914169312,4.625,8.857999801635742,273.29124709049756
1558050108040,,,,273.97644483784404
1558050108052,0.6890000104904175,4.710999965667725,8.39900016784668,275.63699359866837
1558050108107,,,,276.21764847057864
1558050108110,0.7369999885559082,4.691999912261963,8.734000205993652,274.8166673887823
1558050108173,,,,275.73719930398164
1558050108176,0.8230000138282776,4.7779998779296875,8.284000396728516,277.3031431146121
1558050108240,,,,277.92022338536606
1558050108248,0.7749999761581421,4.758999824523926,8.465999603271484,277.4527174272462
1558050108304,,,,277.9721533136257
1558050108308,0.7179999947547913,4.758999824523926,8.743000030517578,277.3766905915948
1558050108371,,,,278.1842238571654
1558050108375,0.6790000200271606,4.797999858856201,9.25100040435791,277.0819542685304
1558050108437,,,,276.4612949786514
1558050108440,,4.883999824523926,9.001999855041504,
1558050108441,0.382999986410141,,,278.9870852733437
1558050108503,,,,277.79745756522425
1558050108506,,4.75,,
1558050108508,-0.008999999612569809,,10.659000396728516,273.0124251081993
1558050108569,,,,270.0169500250418
1558050108574,,6.071000099182129,,
1558050108575,0.746999979019165,,7.066999912261963,286.66320020225174
1558050108637,,,,283.17262519672755
1558050108638,,6.7230000495910645,,
1558050108639,0.7749999761581421,,6.38700008392334,288.43554549941086
1558050108700,,,,282.8745557413482
1558050108704,,7.296999931335449,,
1558050108705,0.6320000290870667,,4.394999980926514,293.7804485627018
1558050108776,,6.396999835968018,,
1558050108777,2.86299991607666,,3.9639999866485596,274.01478268965536
1558050108832,,,,238.66070584748297
1558050108836,5.497000217437744,9.279999732971191,-12.201000213623047,162.95381993508548
1558050108898,,,,161.82987132602486
1558050108903,2.8340001106262207,9.059000015258789,-0.257999986410141,201.1792914562293
1558050108967,,,,194.82852692443817
1558050108968,,9.45199966430664,,
1558050108969,2.499000072479248,,-0.23899999260902405,195.27116416379
1558050109031,,,,188.15931165278425
1558050109034,1.944000005722046,9.470999717712402,0.20999999344348907,197.2262921533278
1558050109098,,,,190.11140703833053
1558050109100,,9.347000122070312,,
1558050109101,1.6469999551773071,,0.02800000086426735,186.69429071732986
1558050109162,,,,181.42337909331764
1558050109166,1.1299999952316284,9.366000175476074,0.0,180.77792621675144
1558050109228,,,,176.59090733004123
1558050109235,1.49399995803833,9.42300033569336,-0.20999999344348907,170.84333046423217
1558050109299,0.9570000171661377,9.45199966430664,0.02800000086426735,169.69156932487127
1558050109364,1.49399995803833,9.42300033569336,0.3630000054836273,177.55716053154458
1558050109384,1.5609999895095825,9.347000122070312,0.20100000500679016,182.02918955194104
1558050109407,1.5509999990463257,9.288999557495117,0.24899999797344208,183.36043440231163
1558050109426,1.6369999647140503,9.126999855041504,0.45899999141693115,188.06439934407774
1558050109427,,,,188.3671406488494
1558050109444,1.6080000400543213,9.050000190734863,0.4399999976158142,188.12346682001998
1558050109464,1.684999942779541,8.96399974822998,0.28700000047683716,183.92101534825122
1558050109492,1.7039999961853027,9.020999908447266,0.37299999594688416,185.8664581295459
1558050109493,,,,186.62239614612622
1558050109506,1.809999942779541,8.9350004196167,0.5070000290870667,188.86642747717724
1558050109524,,8.762999534606934,,
1558050109525,1.8860000371932983,,0.6029999852180481,190.1796679488957
1558050109550,2.059000015258789,8.206999778747559,0.4880000054836273,186.81804008471215
1558050109558,,,,187.24144351136124
1558050109566,2.4130001068115234,8.8100004196167,0.2290000021457672,181.77748342064774
1558050109584,,9.088000297546387,,
1558050109585,2.5179998874664307,,0.16200000047683716,180.6030187324858
1558050109605,2.5179998874664307,9.470999717712402,0.05700000002980232,178.9878939173655
1558050109627,2.499000072479248,9.701000213623047,0.4880000054836273,179.68425902400497
1558050109645,2.4130001068115234,9.940999984741211,0.7559999823570251,190.7398937249984
1558050109664,,10.428999900817871,0.6890000104904175,
1558050109665,2.490000009536743,,,189.4817728798821
1558050109690,2.624000072479248,10.581999778747559,0.5260000228881836,186.5839011999641
1558050109691,,,,186.78212695005618
1558050109705,2.5179998874664307,10.515000343322754,0.9480000138282776,193.1124692162291
1558050109724,2.3459999561309814,10.256999969482422,1.4550000429153442,200.47701140576862
1558050109744,2.134999990463257,9.807000160217285,1.4550000429153442,
1558050109745,,,,202.287011535822
1558050109756,,,,203.3820411239368
1558050109767,2.0869998931884766,9.385000228881836,1.090999960899353,
1558050109768,,,,199.0926003628988
1558050109784,1.9630000591278076,8.96399974822998,0.8709999918937683,196.77342329059923
1558050109805,1.8860000371932983,8.59000015258789,0.6700000166893005,193.82834134313816
1558050109826,1.8289999961853027,8.043999671936035,0.7749999761581421,195.96658670432396
1558050109827,,,,198.6547169352092
1558050109845,1.7519999742507935,7.861999988555908,0.7369999885559082,198.66243504897136
1558050109865,1.6950000524520874,7.728000164031982,0.9190000295639038,202.39643116632556
1558050109888,1.7230000495910645,7.679999828338623,0.8899999856948853,201.52962551913765
1558050109904,,7.61299991607666,0.8999999761581421,
1558050109905,1.7999999523162842,,,202.6698026576662
1558050109924,1.8380000591278076,7.507999897003174,0.5740000009536743,196.58146765416518
1558050109954,1.7039999961853027,7.728000164031982,0.5550000071525574,197.54590402534927
1558050109957,,,,199.75004705164747
1558050109964,1.684999942779541,7.909999847412109,0.5450000166893005,199.8602589840948
1558050109987,1.8289999961853027,8.284000396728516,0.7559999823570251,202.65112892047534
1558050110004,,8.656999588012695,,
1558050110005,2.0390000343322754,,0.9190000295639038,203.36806655689497
1558050110021,,,,205.5409956186861
1558050110024,2.3550000190734863,9.395000457763672,1.0820000171661377,205.3219377916255
1558050110044,2.4509999752044678,9.911999702453613,1.4739999771118164,209.1683451623398
1558050110067,2.384000062942505,10.28499984741211,1.5509999990463257,210.9202886844481
1558050110086,,11.02299976348877,,
1558050110087,1.9149999618530273,,,219.42106016317587
1558050110105,1.7519999742507935,11.406000137329102,2.115999937057495,228.62333305079903
1558050110124,1.503000020980835,11.529999732971191,1.9630000591278076,231.96931978178327
1558050110152,,11.770000457763672,1.4739999771118164,
1558050110153,1.7139999866485596,,,224.1577826922014
1558050110168,,11.722000122070312,1.7999999523162842,
1558050110169,1.6369999647140503,,,232.19022175991978
1558050110184,1.4739999771118164,11.472999572753906,1.8960000276565552,235.58788570216427
1558050110209,1.781000018119812,11.166000366210938,2.5369999408721924,233.21797398470994
1558050110218,,,,236.74662729485698
1558050110227,1.5509999990463257,10.439000129699707,3.6389999389648438,238.94868028326908
1558050110244,,8.359999656677246,,
1558050110245,2.134999990463257,,3.9170000553131104,228.05825784038552
1558050110264,-0.20999999344348907,6.396999835968018,3.8499999046325684,239.47416771725318
1558050110289,0.28700000047683716,5.0370001792907715,3.25600004196167,244.2560651174491
1558050110304,,4.078999996185303,4.021999835968018,
1558050110305,0.2290000021457672,,,226.36909741712805
1558050110324,,3.8499999046325684,,
1558050110325,1.8480000495910645,,3.0160000324249268,220.55304107470045
1558050110350,1.6950000524520874,5.927999973297119,3.572000026702881,228.55232640418762
1558050110351,,,,232.5023340842327
1558050110365,1.4170000553131104,7.46999979019165,4.251999855041504,238.55065783957576
1558050110385,0.5170000195503235,8.503999710083008,6.607999801635742,237.06107554386602
1558050110404,0.05700000002980232,8.96399974822998,7.451000213623047,236.17823261250686
1558050110417,,,,239.82660547842585
1558050110425,-0.4020000100135803,10.60099983215332,8.005999565124512,244.50523041837118
1558050110444,-0.20100000500679016,12.737000465393066,8.206999778747559,250.3189918172377
1558050110464,0.15299999713897705,14.54699993133545,8.532999992370605,252.67813915656006
1558050110484,0.746999979019165,16.635000228881836,8.944999694824219,255.90179719950936
1558050110509,1.6080000400543213,17.92799949645996,8.465999603271484,255.7494498300722
1558050110524,3.390000104904175,19.384000778198242,7.382999897003174,248.84009193738984
1558050110552,4.913000106811523,20.791000366210938,4.126999855041504,234.62728789729374
1558050110570,3.4860000610351562,19.527000427246094,2.7290000915527344,237.61805014992387
1558050110587,,16.32900047302246,,
1558050110588,2.5850000381469727,,4.28000020980835,251.1991163333072
1558050110615,1.2350000143051147,8.236000061035156,3.8970000743865967,
1558050110616,,,,251.54782481119298
1558050110624,0.9190000295639038,6.234000205993652,2.6519999504089355,253.2060649680779
1558050110644,,2.078000068664551,,
1558050110645,0.1340000033378601,,-0.14300000667572021,167.02860151088836
1558050110664,0.15299999713897705,-2.5759999752044678,-0.4020000100135803,45.439694680058665
1558050110680,,,,46.52193815404718
1558050110685,1.3589999675750732,-4.059999942779541,-0.5070000290870667,339.25667963217813
1558050110705,1.8480000495910645,-3.763000011444092,-1.1299999952316284,359.48429008853446
1558050110724,,-2.2309999465942383,,
1558050110725,1.972000002861023,,-0.8230000138282776,227.96161066362987
1558050110746,2.365000009536743,-1.2920000553131104,1.9819999933242798,223.04575959343163
1558050110747,,,,222.26110746158054
1558050110764,1.340000033378601,-0.0949999988079071,2.930000066757202,218.13809108985902
1558050110792,0.7749999761581421,0.8330000042915344,4.35699987411499,
1558050110793,,,,218.50716719184982
1558050110812,,1.503000020980835,,
1558050110814,2.125999927520752,,2.125999927520752,217.90825522428815
1558050110825,2.5850000381469727,1.49399995803833,1.7330000400543213,212.4515351340949
1558050110844,3.878000020980835,4.28000020980835,2.4230000972747803,213.82067387398058
1558050110873,,9.288999557495117,,
1558050110874,5.0370001792907715,,4.2230000495910645,221.264514559784
1558050110892,4.999000072479248,16.577999114990234,9.682000160217285,219.25307849072863
1558050110905,6.7129998207092285,24.163000106811523,10.123000144958496,233.7180257942249
1558050110924,16.586999893188477,27.322999954223633,3.3610000610351562,204.10802193081747
1558050110946,11.645000457763672,27.371000289916992,4.126999855041504,203.8947424437946
1558050110965,5.104000091552734,23.261999130249023,4.548999786376953,231.37077664443666
1558050110984,-0.2680000066757202,19.114999771118164,2.2309999465942383,
1558050110985,,,,295.8671191654649
1558050111010,,14.795999526977539,,
1558050111011,-1.4359999895095825,,1.7330000400543213,331.4538715243556
1558050111024,1.1100000143051147,12.814000129699707,2.4230000972747803,255.83492964753492
1558050111044,2.1740000247955322,9.45199966430664,1.9819999933242798,230.48253786363318
1558050111064,0.6029999852180481,3.734999895095825,1.781000018119812,240.3574477807192
1558050111076,,,,240.76734109319
1558050111086,0.1340000033378601,-0.37299999594688416,0.257999986410141,
1558050111105,-0.29600000381469727,-3.9170000553131104,-1.1970000267028809,102.25520602655695
1558050111124,,-5.7270002365112305,,
1558050111125,-1.6759999990463257,,-1.1679999828338623,135.46557335620741
1558050111142,,,,133.2783965198076
1558050111154,-2.872999906539917,-3.3989999294281006,1.781000018119812,178.42010029166235
1558050111165,-3.677000045776367,-1.4839999675750732,2.078000068664551,177.20804224230855
1558050111184,,-0.10499999672174454,,
1558050111185,-1.2350000143051147,,1.819000005722046,191.98033804054285
1558050111212,,2.624000072479248,,
1558050111213,-2.8440001010894775,,3.4860000610351562,196.3361819006917
1558050111230,-3.9639999866485596,3.1019999980926514,5.486999988555908,194.64000004296736
1558050111248,-1.090999960899353,7.077000141143799,5.583000183105469,236.80031258173324
1558050111274,,12.78499984741211,,
1558050111275,1.3980000019073486,,6.991000175476074,245.8549509304466
1558050111284,3.562000036239624,13.46500015258789,4.423999786376953,238.50679436472592
1558050111305,4.855000019073486,21.759000778198242,3.2750000953674316,234.03429087355323
1558050111324,,29.841999053955078,,
1558050111325,8.675999641418457,,6.1579999923706055,230.79422671621757
1558050111341,,,,231.62815183274108
1558050111344,11.21399974822998,31.097000122070312,6.875999927520752,226.3620213411479
1558050111374,4.913000106811523,26.13599967956543,2.614000082015991,233.14062892254873
1558050111393,5.372000217437744,18.665000915527344,4.251999855041504,233.26165987464134
1558050111406,5.123000144958496,12.335000038146973,2.308000087738037,220.70143376460817
1558050111407,,,,220.8858488721985
1558050111424,3.8589999675750732,8.159000396728516,0.8610000014305115,212.96041154801753
1558050111450,2.0969998836517334,3.802000045776367,0.45899999141693115,211.40762268172847
1558050111472,0.20100000500679016,-1.8960000276565552,-1.1100000143051147,102.156339038321
1558050111473,,,,104.9437392386032
1558050111484,,-4.35699987411499,,
1558050111485,0.16200000047683716,,0.2290000021457672,261.8078344540627
1558050111504,-0.0949999988079071,-5.678999900817871,0.6600000262260437,217.78525717771453
1558050111526,0.7940000295639038,-4.261000156402588,0.8519999980926514,251.59272647479668
1558050111544,,,,253.3909445285318
1558050111545,0.29600000381469727,-2.4700000286102295,3.0739998817443848,208.79993841888768
1558050111564,,-2.5179998874664307,,
1558050111565,1.2350000143051147,,2.805999994277954,215.2535382788226
1558050111593,,-0.1720000058412552,2.490000009536743,
1558050111594,-2.9110000133514404,,,183.39006376293105
1558050111605,0.5070000290870667,0.6790000200271606,2.240999937057495,185.0599220715942
1558050111624,,2.125999927520752,2.240999937057495,
1558050111625,3.1500000953674316,,,208.96171827956857
1558050111644,7.88100004196167,7.948999881744385,4.510000228881836,209.03292983185509
1558050111670,,16.290000915527344,,
1558050111671,8.848999977111816,,4.883999824523926,213.71027069623653
1558050111684,,20.27400016784668,,
1558050111685,10.35200023651123,,2.2980000972747803,204.3449611931252
1558050111705,16.14699935913086,35.625999450683594,6.291999816894531,210.00722899620075
1558050111724,13.416999816894531,34.237998962402344,4.739999771118164,210.39148177852735
1558050111736,,,,209.84876860745646
1558050111744,,27.218000411987305,,
1558050111745,5.89900016784668,,5.813000202178955,230.32242456910978
1558050111764,0.257999986410141,18.100000381469727,6.7129998207092285,256.98290686209566
1558050111784,,12.670000076293945,4.031000137329102,
1558050111785,-4.021999835968018,,,296.0355243096407
1558050111802,,,,300.8175514834309
1558050111804,-2.1640000343322754,8.666999816894531,0.765999972820282,
1558050111805,,,,24.41067262189705
1558050111824,,4.683000087738037,,
1558050111825,,,-1.809999942779541,
1558050111826,-1.656000018119812,,,125.05534053273249
1558050111858,,-0.2680000066757202,,
1558050111859,-2.259999990463257,,2.5369999408721924,188.42295695474672
1558050111870,-2.815000057220459,-3.0160000324249268,4.01200008392334,190.82566724059552
1558050111888,-2.739000082015991,-5.650000095367432,2.4130001068115234,182.58449759184145
1558050111907,-2.499000072479248,-4.635000228881836,2.193000078201294,182.46144490375445
1558050111934,,-2.5950000286102295,,
1558050111935,-2.000999927520752,,2.4230000972747803,186.6535964502549
1558050111948,-2.000999927520752,-1.8289999961853027,1.6660000085830688,180.25410534892478
1558050111966,-2.9110000133514404,0.45899999141693115,2.125999927520752,178.1546654801373
1558050111984,,2.490000009536743,2.499000072479248,
1558050111985,1.1100000143051147,,,219.4432446176001
1558050112001,,,,221.90454426614917
1558050112004,,6.310999870300293,,
1558050112005,1.5609999895095825,,4.261000156402588,232.96826226865426
1558050112028,2.000999927520752,9.998000144958496,3.5910000801086426,245.2279327344503
1558050112044,1.809999942779541,18.62700080871582,7.296999931335449,256.6881568786529
1558050112068,4.2230000495910645,29.027999877929688,11.071000099182129,251.17917218093078
1558050112084,8.906000137329102,37.56100082397461,9.87399959564209,241.40354589362005
1558050112115,7.623000144958496,28.67300033569336,8.206999778747559,238.65276916766743
1558050112133,6.043000221252441,16.961000442504883,4.031000137329102,228.11130108947987
1558050112145,6.196000099182129,14.432000160217285,3.0260000228881836,221.74775044356238
1558050112170,5.650000095367432,7.4029998779296875,0.24899999797344208,204.36390813788285
1558050112190,4.175000190734863,3.8499999046325684,-0.765999972820282,196.58149497492184
1558050112200,,,,195.5505872027352
1558050112204,,0.11400000005960464,,
1558050112205,2.240999937057495,,-1.406999945640564,185.1860893259427
1558050112224,0.6890000104904175,-4.999000072479248,-1.378999948501587,44.76408310321227
1558050112252,0.41100001335144043,-6.329999923706055,1.3209999799728394,
1558050112253,,,,230.1475444056008
1558050112265,0.06700000166893005,-5.372000217437744,1.9819999933242798,213.08065019816638
1558050112269,,,,214.73638367562592
1558050112288,,-2.872999906539917,1.5700000524520874,
1558050112289,-0.6029999852180481,,,197.52298191049476
1558050112304,0.4779999852180481,-2.7190001010894775,3.063999891281128,207.70589237801335
1558050112330,,-0.11400000005960464,,
1558050112331,-1.4739999771118164,,3.562000036239624,195.2758769943173
1558050112332,,,,196.72492894749212
1558050112352,0.8140000104904175,1.9819999933242798,2.680999994277954,214.96574142795492
1558050112364,,2.365000009536743,,
1558050112365,3.0739998817443848,,1.340000033378601,204.1373097819785
1558050112393,5.486999988555908,3.4760000705718994,4.13700008392334,207.10305988186803
1558050112396,,,,204.91435308309406
1558050112413,,9.059000015258789,2.2790000438690186,
1558050112414,7.239999771118164,,,201.40035735890592
1558050112434,9.145999908447266,16.82699966430664,3.505000114440918,205.61723419020177
1558050112444,12.229999542236328,27.69700050354004,8.666999816894531,
1558050112445,,,,213.66035567378208
1558050112475,,37.130001068115234,7.382999897003174,211.67858994648122
1558050112476,19.738000869750977,,,
1558050112496,13.675999641418457,33.72999954223633,5.056000232696533,206.12011369803315
1558050112504,,18.281999588012695,,
1558050112537,-2.441999912261963,13.569999694824219,4.242000102996826,277.1675297086415
1558050112558,-3.303999900817871,10.142000198364258,3.0929999351501465,267.49001225856887
1558050112564,-1.3589999675750732,6.013999938964844,-0.32499998807907104,69.80813965741208
1558050112595,-2.872999906539917,-0.9670000076293945,0.11400000005960464,169.77549868939238
1558050112616,-2.757999897003174,-2.700000047683716,0.8230000138282776,174.46212861104502
1558050112627,-2.384000062942505,-5.065999984741211,2.7860000133514404,189.12663036379809
1558050112648,-1.49399995803833,-5.209000110626221,2.6429998874664307,195.14236045642178
1558050112669,-1.378999948501587,-3.505000114440918,3.1019999980926514,193.9659150134005
1558050112690,-1.2920000553131104,-1.5509999990463257,2.441999912261963,191.74359002353185
1558050112711,-4.605999946594238,-0.6029999852180481,2.7860000133514404,179.44281183684504
1558050112732,-1.5219999551773071,2.5850000381469727,3.5139999389648438,201.9130859995205
1558050112744,3.0739998817443848,5.401000022888184,3.4089999198913574,214.0321775118192
1558050112796,,,,216.14523313534607
1558050112818,3.7149999141693115,27.983999252319336,10.467000007629395,244.1583114500479
1558050112860,,,,244.63004529526404
1558050112880,7.460000038146973,17.8799991607666,2.7669999599456787,213.03334430797491
1558050112924,,,,211.9834622702739
1558050112942,,0.8420000076293945,,
1558050112943,3.246000051498413,,-2.441999912261963,179.4809516131704
1558050112991,,,,178.21651967326093
1558050113008,-0.32499998807907104,-5.315000057220459,3.619999885559082,205.45791319762202
1558050113057,,,,208.06375330938704
1558050113077,-0.7940000295639038,-1.531999945640564,2.3459999561309814,198.33082936476717
1558050113131,,,,200.35318007611625
1558050113140,,7.374000072479248,,
1558050113141,5.09499979019165,,4.672999858856201,208.5037267749625
1558050113190,,,,207.36353597605557
1558050113207,,35.89500045776367,,
1558050113209,17.573999404907227,,4.864999771118164,199.5139137516618
1558050113254,,,,200.57059865777615
1558050113272,-3.1700000762939453,11.38700008392334,4.864999771118164,252.53018359875927
1558050113321,,,,252.09154202007187
1558050113338,,0.9380000233650208,,
1558050113339,-4.548999786376953,,2.0969998836517334,180.67905239832635
1558050113387,,,,179.57605516717365
1558050113404,,-5.545000076293945,,
1558050113405,-1.1490000486373901,,3.0160000324249268,203.10853302881276
1558050113454,,,,203.1714254106903
1558050113475,0.8709999918937683,3.236999988555908,3.390000104904175,218.79939000529964
1558050113518,,,,222.17295704015237
1558050113538,1.406999945640564,23.09000015258789,4.453000068664551,261.5176333766072
1558050113585,,,,263.3918372848587
1558050113604,0.7179999947547913,26.05900001525879,6.7230000495910645,268.9965607441769
1558050113653,,,,270.2290888704732
1558050113686,4.156000137329102,6.061999797821045,-1.6950000524520874,184.40300813760064
1558050113717,,,,183.3197811163717
1558050113735,1.531999945640564,-5.497000217437744,0.6600000262260437,282.6058151182649
1558050113799,,,,285.20596568245116
1558050113801,-0.5450000166893005,-1.8669999837875366,3.628999948501587,208.05954591285825
1558050113863,,,,209.52702571641385
1558050113885,4.826000213623047,12.795000076293945,6.607999801635742,225.26637703600784
1558050113916,,,,225.20420865418237
1558050113932,8.991999626159668,29.363000869750977,2.2309999465942383,205.9691118758625
1558050113980,,,,205.5583306387996
1558050113998,,15.89799976348877,6.482999801635742,
1558050113999,0.15299999713897705,,,257.11182668267963
1558050114046,,,,258.18904313743906
1558050114064,,3.2750000953674316,,
1558050114065,-7.269000053405762,,0.2290000021457672,158.36241651084117
1558050114129,,,,156.94437361649813
1558050114130,-0.12399999797344208,-5.01800012588501,2.4700000286102295,220.2583320723927
1558050114178,,,,220.02417952726637
1558050114196,,3.4660000801086426,,
1558050114197,-1.3209999799728394,,2.384000062942505,249.10771923963847
1558050114245,,,,251.14284240473546
1558050114262,,14.12600040435791,,
1558050114263,1.6759999990463257,,7.326000213623047,247.43941821410613
1558050114311,,,,248.7581296673497
1558050114328,3.821000099182129,34.736000061035156,3.993000030517578,245.3003327396524
1558050114393,,,,245.6669021622178
1558050114394,4.394999980926514,9.232000350952148,0.2770000100135803,
1558050114395,,,,202.8025405539962
1558050114458,,,,201.23523070553176
1558050114463,1.49399995803833,-4.184999942779541,1.3880000114440918,250.28251177688065
1558050114508,,,,251.0588105873768
1558050114526,-0.6990000009536743,-3.1600000858306885,3.2939999103546143,
1558050114527,,,,207.72362354909865
1558050114575,,,,208.43328020386303
1558050114592,0.746999979019165,3.063999891281128,1.8860000371932983,
1558050114593,,,,231.65312300434664
1558050114640,,,,228.73997902144453
1558050114658,3.236999988555908,19.785999298095703,7.8429999351501465,237.1307981149135
1558050114723,,,,235.53422773604467
1558050114728,7.585000038146973,26.202999114990234,3.437999963760376,211.0754159408774
1558050114789,,,,211.07148175191548
1558050114791,-4.567999839782715,6.1579999923706055,1.656000018119812,
1558050114792,,,,173.77756607129132
1558050114838,,,,172.43629450321924
1558050114857,-2.125999927520752,-4.797999858856201,2.8440001010894775,195.64131943566963
1558050114904,,,,195.92944413561747
1558050114924,-1.8769999742507935,-1.7619999647140503,2.930000066757202,195.6667550601387
1558050114971,,,,195.12268951161218
1558050114995,4.635000228881836,9.395000457763672,3.9070000648498535,213.2652838718102
1558050115040,,,,214.5958457032637
1558050115063,0.1720000058412552,39.05500030517578,14.824999809265137,254.86013187937988
1558050115107,,,,256.28848152918044
1558050115130,3.3320000171661377,15.553000450134277,3.8299999237060547,231.0206884683385
1558050115173,,,,230.38717476244153
1558050115196,2.1059999465942383,-1.2350000143051147,-2.000999927520752,166.51419264373803
1558050115243,,,,164.25819482126116
1558050115253,0.05700000002980232,-4.203999996185303,1.5700000524520874,224.59369902540993
1558050115301,,,,227.40107069882527
1558050115335,-1.2059999704360962,4.3379998207092285,4.021999835968018,227.67833539799278
1558050115379,,,,228.60087538880805
1558050115402,7.6519999504089355,17.8700008392334,5.285999774932861,212.11111850586144
1558050115449,,,,212.81155440524628
1558050115451,7.1539998054504395,28.615999221801758,5.813000202178955,221.01286307000407
1558050115499,,,,223.50063653177614
1558050115520,-3.6010000705718994,8.906000137329102,2.6519999504089355,303.8476863615316
1558050115566,,,,316.40173115036595
1558050115589,-1.9049999713897705,-4.2230000495910645,0.8610000014305115,178.58896988870174
1558050115635,,,,176.37643939010283
1558050115659,-2.940000057220459,-2.930000066757202,2.441999912261963,185.43672994772544
1558050115706,,,,183.94393746310584
1558050115730,1.7039999961853027,6.4070000648498535,7.0289998054504395,230.10301157221227
1558050115774,,,,234.44082373295237
1558050115780,-0.2290000021457672,29.937999725341797,6.789999961853027,291.4418669229703
1558050115840,,,,293.08022439918125
1558050115846,1.531999945640564,22.160999298095703,8.972999572753906,268.33423047017163
1558050115896,,,,268.45918195084784
1558050115931,3.2170000076293945,0.9670000076293945,-1.5509999990463257,186.1031924861786
1558050115960,,,,183.46048301327392
1558050115979,0.8899999856948853,-6.061999797821045,2.1449999809265137,244.00993242051857
1558050116027,,,,246.94461198987375
1558050116048,,0.23899999260902405,,
1558050116049,-1.1770000457763672,,2.1640000343322754,211.8892603012411
1558050116096,,,,214.29015375677062
1558050116119,0.8899999856948853,3.303999900817871,5.775000095367432,232.38724539671796
1558050116167,,,,231.3246045656474
1558050116176,,28.243000030517578,,
1558050116177,15.467000007629395,,1.062999963760376,197.01235696814456
1558050116226,,,,195.6837485707938
1558050116243,-4.242000102996826,14.288999557495117,3.9639999866485596,316.178964530586
1558050116309,-3.7820000648498535,0.7080000042915344,-0.20999999344348907,314.54616682835945
1558050116357,,,,158.78224091836518
1558050116382,-1.6660000085830688,-5.947000026702881,3.111999988555908,209.82729449270596
1558050116431,,,,209.04312047409678
1558050116440,-0.45899999141693115,2.000999927520752,4.2230000495910645,226.2593909186793
1558050116489,,,,225.7336439375067
1558050116506,2.365000009536743,17.267000198364258,5.315000057220459,247.247175709727
1558050116554,,,,247.1851712524416
1558050116576,4.261000156402588,27.29400062561035,4.261000156402588,235.00453290553185
1558050116625,,,,235.03095207724147
1558050116650,5.572999954223633,8.072999954223633,-1.1200000047683716,187.11709308733202
1558050116701,,,,186.84698642641467
1558050116711,,-7.039000034332275,,
1558050116712,-0.257999986410141,,2.614000082015991,224.7173254493872
1558050116753,,,,225.1739099350242
1558050116779,-2.384000062942505,-2.2690000534057617,2.7669999599456787,196.4615841738531
1558050116826,,,,197.0049120619493
1558050116836,4.28000020980835,3.993000030517578,3.063999891281128,208.27927309845757
1558050116900,,,,206.61217418621914
1558050116902,11.291000366210938,26.988000869750977,2.499000072479248,199.16883893441445
1558050116954,,,,199.36907276012244
1558050116978,1.090999960899353,20.648000717163086,5.323999881744385,252.54115288256628
1558050117030,,,,253.02429314369635
1558050117034,-2.9590001106262207,3.1019999980926514,-1.1770000457763672,138.34986662005542
1558050117084,,,,139.24009981609655
1558050117108,-0.4880000054836273,-5.439000129699707,3.2750000953674316,210.5319651093762
1558050117157,,,,208.21368962204713
1558050117166,-2.680999994277954,-1.312000036239624,0.9279999732971191,175.56514952048872
1558050117214,,,,173.99495733219447
1558050117232,,10.142000198364258,,
1558050117233,0.5740000009536743,,4.4720001220703125,248.09782795952788
1558050117291,,,,250.84377574173726
1558050117304,7.105999946594238,37.51300048828125,2.996999979019165,223.29122293182354
1558050117362,,,,224.5994090635561
1558050117365,4.414999961853027,13.39799976348877,1.819000005722046,217.9744534177239
1558050117415,,,,216.82923559958783
1558050117438,,-2.556999921798706,,
1558050117439,2.872999906539917,,0.4300000071525574,219.05519425009498
1558050117492,,,,219.04520851352845
1558050117496,-0.6890000104904175,-3.936000108718872,3.390000104904175,204.27507469753755
1558050117568,-1.1970000267028809,5.085000038146973,2.441999912261963,206.55355750276215
1558050117619,,,,257.75908272918673
1558050117643,,17.076000213623047,7.776000022888184,
1558050117644,3.562000036239624,,,231.57591454596889
1558050117678,,,,229.65000610570036
1558050117700,8.906000137329102,27.582000732421875,5.343999862670898,213.09619570871735
1558050117752,,,,213.05921706455092
1558050117760,-7.9679999351501465,8.197999954223633,0.8899999856948853,155.55966204530478
1558050117809,,,,155.51208294754645
1558050117827,-2.2790000438690186,-4.9029998779296875,-0.6990000009536743,157.62395011815772
1558050117877,,,,157.5902226440362
1558050117903,-2.3359999656677246,-1.8289999961853027,3.2939999103546143,196.07797342930849
1558050117954,,,,196.0484533517158
1558050117960,4.242000102996826,3.3320000171661377,5.113999843597412,209.50317469583217
1558050118007,,,,209.84775773945933
1558050118034,3.055000066757202,28.444000244140625,8.388999938964844,243.8872075815118
1558050118086,,,,243.7309738344369
1558050118090,6.493000030517578,20.024999618530273,4.826000213623047,216.61816909385607
1558050118139,,,,214.80163930295623
1558050118163,,3.1019999980926514,-1.9630000591278076,
1558050118164,5.381999969482422,,,179.05114146907982
1558050118214,,,,177.6943653715918
1558050118240,,-6.080999851226807,,
1558050118241,-0.7179999947547913,,2.3459999561309814,216.42398681575264
1558050118271,,,,219.09314278112356
1558050118294,,-0.7179999947547913,3.4570000171661377,
1558050118295,-1.9529999494552612,,,202.40182701576987
1558050118347,,,,202.8624003318822
1558050118354,4.672999858856201,3.390000104904175,5.97599983215332,204.04962381341386
1558050118402,,,,202.2994151593548
1558050118424,18.88599967956543,29.937999725341797,4.453000068664551,188.9026957816701
1558050118475,,,,188.80516068032227
1558050118486,0.45899999141693115,16.691999435424805,5.534999847412109,235.6987669931503
1558050118555,,,,235.05678385268243
1558050118556,-5.248000144958496,1.2350000143051147,-0.05700000002980232,175.94820018952137
1558050118610,,,,174.27104723882474
1558050118637,-1.9919999837875366,-5.123000144958496,3.3420000076293945,199.37276106227432
1558050118666,,,,196.37719035646842
1558050118692,-2.1449999809265137,0.9480000138282776,1.6950000524520874,188.6266058750398
1558050118740,,,,185.78329374621194
1558050118751,2.3359999656677246,9.73900032043457,1.8669999837875366,
1558050118798,,,,222.89060501624562
1558050118822,6.953000068664551,33.893001556396484,4.739999771118164,223.54578408218993
1558050118875,,,,227.0104931613273
1558050118902,6.301000118255615,12.152999877929688,0.8519999980926514,202.12982156226326
1558050118930,,,,201.86002909004787
1558050118954,2.3550000190734863,-4.548999786376953,0.6320000290870667,237.57227422210644
1558050119007,,,,240.04961115482672
1558050119015,0.9670000076293945,-2.98799991607666,3.8499999046325684,206.5258815762453
1558050119063,,,,208.23983558618988
1558050119088,-0.6119999885559082,4.394999980926514,3.4570000171661377,223.15157288405345
1558050119129,,,,223.58139668852237
1558050119175,13.302000045776367,25.187000274658203,-2.98799991607666,185.38949235942562
1558050119201,,,,184.5760441500338
1558050119227,2.1449999809265137,24.631999969482422,7.5269999504089355,241.29225479128388
1558050119280,-3.619999885559082,5.323999881744385,-0.8230000138282776,241.29225479128388
1558050119336,,,,133.16870368173718
1558050119344,-2.384000062942505,-5.880000114440918,1.5219999551773071,185.95447194719077
1558050119393,,,,186.16010162234318
1558050119416,-4.616000175476074,0.2290000021457672,2.700000047683716,184.3431073785797
1558050119469,,,,183.45463637134435
1558050119496,1.6469999551773071,8.321999549865723,9.279999732971191,216.20719661149644
1558050119525,,,,217.69175188797703
1558050119549,4.242000102996826,36.78499984741211,15.677000045776367,238.42934001953802
1558050119605,,,,240.21674588381694
1558050119610,,9.625,,
1558050119611,5.171000003814697,,-0.32499998807907104,193.13112929304157
1558050119660,,,,192.64609023932223
1558050119687,0.15299999713897705,-2.4800000190734863,-0.8040000200271606,90.4379952151944
1558050119722,,,,91.45828204322174
1558050119741,,-3.121999979019165,2.499000072479248,
1558050119742,1.7519999742507935,,,221.9879818570501
1558050119797,,,,222.84480176767147
1558050119826,0.6700000166893005,4.605999946594238,2.5369999408721924,231.65503545731428
1558050119855,,,,231.34894735984932
1558050119882,5.199999809265137,22.33300018310547,4.883999824523926,221.84928803576383
1558050119940,5.966000080108643,29.257999420166016,7.958000183105469,222.14779462325004
1558050119997,,,,229.76146113257664
1558050120004,-5.410999774932861,7.574999809265137,-2.5369999408721924,125.31415006076259
1558050120080,-1.1490000486373901,-4.769000053405762,0.8610000014305115,125.0929885354376
1558050120137,-3.9170000553131104,-1.406999945640564,3.7149999141693115,188.56633628580357
1558050120192,,,,189.23626856035514
1558050120221,2.757999897003174,5.822000026702881,5.199999809265137,221.0456752987768
1558050120250,,,,223.09368020064846
1558050120279,-1.034000039100647,32.48500061035156,9.54800033569336,277.8652881738717
1558050120316,,,,279.56541788093625
1558050120337,4.165999889373779,14.288999557495117,1.1970000267028809,212.6914660192591
1558050120396,,,,211.7988832381435
1558050120400,3.0739998817443848,2.1640000343322754,-0.5929999947547913,189.40953679922006
1558050120454,,,,187.79044045646856
1558050120483,-0.5450000166893005,-5.065999984741211,1.781000018119812,212.60148510713339
1558050120515,,,,214.8172394550205
1558050120543,-0.6029999852180481,1.350000023841858,0.41100001335144043,298.0165592067004
1558050120601,1.6759999990463257,7.890999794006348,4.739999771118164,289.2589179736667
1558050120660,,,,228.03071851765208
1558050120664,19.374000549316406,32.61000061035156,1.1200000047683716,192.8568835374872
1558050120717,,,,194.10116641934508
1558050120746,-5.267000198364258,13.043999671936035,8.053999900817871,236.30095745151363
1558050120803,-2.757999897003174,1.0820000171661377,4.13700008392334,230.98063623904557
1558050120858,,,,194.35773564532747
1558050120886,-0.9480000138282776,-3.380000114440918,3.25600004196167,199.97407725642393
1558050120914,,,,199.07144043685003
1558050120944,-2.3269999027252197,1.062999963760376,3.993000030517578,195.2956845429103
1558050120976,,,,195.65097732315598
1558050121002,0.8140000104904175,17.61199951171875,3.3610000610351562,274.87230610976127
1558050121043,,,,276.499004453059
1558050121062,2.4700000286102295,28.1560001373291,5.1620001792907715,264.13847941397864
1558050121119,,,,262.96938325450424
1558050121148,3.8299999237060547,4.739999771118164,-0.02800000086426735,200.29478195871263
1558050121177,,,,198.3691194052543
1558050121206,0.7179999947547913,-5.046999931335449,2.384000062942505,227.63993607447895
1558050121240,,,,230.99874990072442
1558050121266,0.0949999988079071,-3.25600004196167,2.680999994277954,216.104894038108
1558050121307,,,,218.90849544710147
1558050121327,,4.2129998207092285,,
1558050121328,2.9590001106262207,,8.503999710083008,218.0381381015451
1558050121384,,,,218.20259539638062
1558050121413,12.201000213623047,31.98699951171875,-1.340000033378601,188.3359540050991
1558050121440,,,,186.96077737798703
1558050121468,0.5929999947547913,20.743999481201172,6.923999786376953,254.46243728476668
1558050121523,,,,253.80904772838494
1558050121524,-5.650000095367432,4.644000053405762,0.06700000166893005,153.55538401449954
1558050121582,,,,154.73457519356722
1558050121592,-2.384000062942505,-5.659999847412109,2.1449999809265137,194.23869910847247
1558050121640,,,,192.41812584558397
1558050121655,-2.384000062942505,-0.49799999594688416,0.14300000667572021,170.51410168585923
1558050121729,,,,168.64335385332777
1558050121730,-1.1579999923706055,10.208999633789062,8.503999710083008,232.9961157800896
1558050121788,,,,234.25770636130432
1558050121789,4.883999824523926,34.9370002746582,3.9839999675750732,
1558050121848,,,,233.88464142883822
1558050121853,1.225000023841858,12.5649995803833,2.996999979019165,252.8385051680828
1558050121906,,,,251.76160973221442
1558050121918,,-2.2119998931884766,,
1558050121919,2.98799991607666,,-0.7369999885559082,196.61600109060873
1558050121995,0.6510000228881836,-4.769000053405762,2.3269999027252197,194.32118047288952
1558050122056,-0.7559999823570251,3.5139999389648438,1.3209999799728394,228.56262632945595
1558050122098,,,,272.9432899334204
1558050122117,1.6080000400543213,13.666000366210938,-1.1770000457763672,167.61258268492446
1558050122178,,,,167.83954987104397
1558050122182,24.114999771118164,41.047000885009766,-5.6020002365112305,184.41076723249785
1558050122238,,,,185.63763313197217
1558050122250,-3.006999969482422,7.2210001945495605,2.805999994277954,246.85719239868678
1558050122298,,,,238.73975845693673
1558050122329,-4.702000141143799,-2.316999912261963,2.384000062942505,179.7886652956578
1558050122390,-1.6660000085830688,-2.2790000438690186,3.5329999923706055,177.9452108990497
1558050122451,,,,193.33659504365392
1558050122452,0.8230000138282776,3.562000036239624,5.775000095367432,212.2624618374906
1558050122512,,,,213.8230917609468
1558050122513,0.4880000054836273,25.51300048828125,-2.078000068664551,145.388595125807
1558050122574,,,,145.57611113928053
1558050122578,3.0350000858306885,23.32900047302246,6.320000171661377,252.89581728540838
1558050122635,,,,251.81674301919475
1558050122665,,1.809999942779541,,
1558050122666,3.5139999389648438,,-2.384000062942505,180.97217679674657
1558050122696,,,,179.15647664645977
1558050122727,1.8960000276565552,-4.232999801635742,4.089000225067139,217.2945763877408
1558050122759,,,,219.52654560471757
1558050122789,-0.6890000104904175,-0.8610000014305115,-0.37299999594688416,151.0886475353711
1558050122824,,,,152.89392117451882
1558050122850,3.437999963760376,3.3610000610351562,10.744999885559082,213.5212520411456
1558050122891,,,,213.23767624718505
1558050122909,16.107999801635742,31.135000228881836,1.6369999647140503,196.35030673189533
1558050122959,,,,195.6415516621014
1558050122989,1.2829999923706055,18.358999252319336,6.453999996185303,247.17810883683978
1558050123023,,,,247.19843547980975
1558050123050,-3.3320000171661377,5.486999988555908,-1.406999945640564,117.00187814274878
1558050123108,,-6.684000015258789,1.5700000524520874,119.99373322564617
1558050123109,-1.9249999523162842,,,
1558050123168,,,,188.8579307218498
1558050123172,,1.6660000085830688,,
1558050123173,-2.7190001010894775,,3.7920000553131104,198.94897514503168
1558050123229,,,,198.34630657342643
1558050123238,,7.172999858856201,,
1558050123239,4.021999835968018,,1.378999948501587,205.53935637328527
1558050123290,,,,206.4956784797355
1558050123319,2.805999994277954,43.04899978637695,6.550000190734863,258.89206767851925
1558050123380,6.626999855041504,12.277000427246094,-1.1770000457763672,258.96377100442606
1558050123439,2.4509999752044678,-3.9839999675750732,-0.1809999942779541,189.5710707730908
1558050123498,,,,248.50608885678707
1558050123502,-0.20100000500679016,-2.556999921798706,3.371000051498413,207.7397974370533
1558050123560,,,,209.43245491716584
1558050123568,,2.3940000534057617,,
1558050123569,0.11400000005960464,,1.1679999828338623,239.51473904092302
1558050123623,,,,239.00095855117638
1558050123654,,15.006999969482422,,
1558050123655,4.4720001220703125,,2.3940000534057617,210.023348242642
1558050123687,,,,209.76578180904085
1558050123718,15.399999618530273,32.78200149536133,9.001999855041504,206.92032500081348
1558050123750,,,,208.14654886250588
1558050123783,-9.692000389099121,11.031999588012695,1.9249999523162842,162.833758869855
1558050123815,,,,157.6895335945682
1558050123846,-1.4259999990463257,-3.552999973297119,1.934000015258789,196.9226082824507
1558050123880,,,,195.09994498167612
1558050123908,-1.7039999961853027,-1.7519999742507935,3.6389999389648438,197.97023635772553
1558050123969,1.8960000276565552,3.687000036239624,3.0260000228881836,197.70070343269845
1558050124031,,,,221.7122744410134
1558050124032,0.9570000171661377,25.41699981689453,4.289999961853027,272.02376888621825
1558050124095,,,,274.52789382086337
1558050124101,1.8669999837875366,24.881000518798828,6.291999816894531,262.63726530611234
1558050124159,,,,262.2016016899031
1558050124191,4.107999801635742,0.9380000233650208,-2.1059999465942383,182.84542447851436
1558050124222,,,,181.40749207330816
1558050124228,1.0529999732971191,-6.501999855041504,3.111999988555908,228.85531359576936
1558050124286,,,,231.0375726959668
1558050124318,-1.49399995803833,-0.7749999761581421,1.49399995803833,
1558050124319,,,,190.62886216985066
1558050124350,,,,192.1037458984665
1558050124381,2.6429998874664307,3.696000099182129,5.256999969482422,216.04312180725435
1558050124412,,,,215.2294140506741
1558050124443,14.383999824523926,34.2859992980957,6.664999961853027,208.0639035735487
1558050124474,,,,207.48108353167152
1558050124503,-0.7080000042915344,14.748000144958496,4.021999835968018,272.2747851684054
1558050124540,,,,272.0578037188524
1558050124565,-4.921999931335449,3.802000045776367,-1.2059999704360962,146.83774270163028
1558050124629,-0.8040000200271606,-6.061999797821045,1.465000033378601,147.17755827321673
1558050124693,-2.7190001010894775,2.614000082015991,3.734999895095825,208.49673266125245
1558050124756,,8.848999977111816,,208.1744843362112
1558050124757,3.9260001182556152,,9.079000473022461,
1558050124817,,,,220.6454535341707
1558050124823,2.5759999752044678,40.24300003051758,2.7860000133514404,242.74036417835327
1558050124879,,,,242.67738983420577
1558050124911,4.672999858856201,10.543999671936035,-1.378999948501587,184.05334343323102
1558050124941,,,,182.59539857375682
1558050124974,1.809999942779541,-5.353000164031982,0.4020000100135803,297.5754109485876
1558050125007,,,,302.3026531750451
1558050125039,0.8899999856948853,-2.25,1.8480000495910645,226.67555434480818
1558050125071,,,,228.43184186722857
1558050125103,-0.6029999852180481,2.6429998874664307,1.6180000305175781,246.10990823178486
1558050125135,,,,245.71826518477633
1558050125167,4.386000156402588,21.52899932861328,6.252999782562256,226.04160350680428
1558050125232,5.285999774932861,25.579999923706055,8.331999778747559,225.898128553099
1558050125266,,,,227.91639481132438
1558050125297,-7.909999847412109,8.03499984741211,-0.2770000100135803,145.82881447819267
1558050125333,,,,144.75650209925735
1558050125365,-1.809999942779541,-4.051000118255615,2.125999927520752,199.2834631690655
1558050125400,,,,198.3498582717948
1558050125435,-1.2350000143051147,-2.930000066757202,4.051000118255615,206.99170047764017
1558050125469,,,,206.86247329854348
1558050125482,,2.193000078201294,,
1558050125483,3.677000045776367,,3.0450000762939453,208.75939441597444
1558050125536,,,,210.37931038142642
1558050125569,,34.784000396728516,,
1558050125570,-7.1539998054504395,,3.993000030517578,347.780005249319
1558050125603,,,,348.1458617708898
1558050125637,,18.875999450683594,4.75,
1558050125669,,,,227.06860441078572
1558050125701,3.0739998817443848,2.115999937057495,-1.7039999961853027,174.76982863315408
1558050125734,,,,173.30837305644647
1558050125746,0.02800000086426735,-5.353000164031982,2.5369999408721924,228.442182773632
1558050125800,,,,231.21398282184987
1558050125812,-3.236999988555908,-1.9249999523162842,2.183000087738037,191.9805702669746
1558050125867,,,,193.6596083498821
1558050125901,-0.23899999260902405,7.019999980926514,8.39900016784668,228.9253093743837
1558050125935,,,,229.25412834140639
1558050125969,11.3100004196167,34.650001525878906,-0.765999972820282,184.4775801429589
1558050126003,,,,184.72192333032694
1558050126010,-1.312000036239624,15.609999656677246,7.728000164031982,
1558050126011,,,,253.49472925297016
1558050126069,,,,253.65705552878467
1558050126076,-2.308000087738037,1.5130000114440918,-0.9760000109672546,
1558050126077,,,,141.638138252553
1558050126126,,,,141.60749802393633
1558050126158,-1.8380000591278076,-7.077000141143799,4.318999767303467,211.98313442119377
1558050126191,,,,210.40063423201514
1558050126223,-2.240999937057495,2.5850000381469727,2.5759999752044678,
1558050126224,,,,221.86499747085486
1558050126258,,,,221.25620904975324
1558050126288,3.265000104904175,17.66900062561035,8.331999778747559,
1558050126289,,,,237.85180654407839
1558050126325,,,,238.5629931612168
1558050126359,4.002999782562256,35.76100158691406,6.196000099182129,244.8193508183001
1558050126391,,,,244.66236575041654
1558050126427,2.872999906539917,8.925000190734863,1.8669999837875366,218.38393691884448
1558050126460,,,,217.37149797817347
1558050126495,3.5139999389648438,-5.966000080108643,1.7519999742507935,250.56974172204718
1558050126530,,,,250.1337707473253
1558050126563,,-2.3940000534057617,,
1558050126564,1.1970000267028809,,3.734999895095825,217.13255064024975
1558050126597,,,,216.66904034279435
1558050126630,-1.7899999618530273,2.825000047683716,3.505000114440918,219.23742369715092
1558050126662,,,,219.0286111538453
1558050126670,9.786999702453613,22.190000534057617,6.991000175476074,
1558050126671,,,,209.15036810444428
1558050126731,,,,207.9909025116997
1558050126737,5.764999866485596,27.983999252319336,5.285999774932861,218.98411930159182
1558050126802,,,,218.9730543951364
1558050126803,,7.660999774932861,,
1558050126804,-7.249000072479248,,-1.5800000429153442,143.23005044240787
1558050126871,-0.12399999797344208,-3.811000108718872,2.6040000915527344,142.8892786443376
1558050126941,-2.0490000247955322,-3.371000051498413,1.9529999494552612,215.74376827631107
1558050126982,,,,192.2771780618716
1558050127009,3.197999954223633,5.353000164031982,6.531000137329102,214.3247691554842
1558050127048,,,,215.82795718802066
1558050127077,-2.8440001010894775,31.863000869750977,-7.296999931335449,113.31974365176242
1558050127115,,,,114.04316313770431
1558050127149,3.753999948501587,21.298999786376953,2.490000009536743,224.58659562867314
1558050127184,,,,224.89835278314922
1558050127221,3.763000011444092,2.805999994277954,-0.3540000021457672,190.0003618228045
1558050127257,,,,189.45135121731892
1558050127264,0.8809999823570251,-5.888999938964844,2.2309999465942383,237.00536852099538
1558050127327,,,,238.84637770988064
1558050127331,-3.0160000324249268,0.8330000042915344,2.499000072479248,193.0143740393694
1558050127399,5.611999988555908,4.769000053405762,3.86899995803833,194.31432296296293
1558050127470,14.307999610900879,32.3129997253418,4.960000038146973,205.3031547714079
1558050127542,-6.291999816894531,15.513999938964844,6.493000030517578,205.03054826125435
1558050127577,,,,263.44327543949805
1558050127608,-2.0199999809265137,-0.6029999852180481,-1.5509999990463257,
1558050127609,,,,153.0244597499361
1558050127643,,,,151.94374623832167
1558050127675,-2.3459999561309814,-5.50600004196167,4.089000225067139,196.38223103607595
1558050127709,,,,195.12706083268108
1558050127740,-0.6320000290870667,3.572000026702881,2.5850000381469727,240.59427776000024
1558050127775,,,,245.03062222970692
1558050127808,1.4839999675750732,13.387999534606934,3.1019999980926514,257.194799820717
1558050127843,,,,258.65619392572205
1558050127877,4.318999767303467,36.249000549316406,5.199999809265137,251.12248161081965
1558050127911,,,,250.68084157908663
1558050127945,4.251999855041504,8.388999938964844,0.3919999897480011,205.6803314777544
1558050127980,,,,203.80409217313024
1558050127990,,-4.40500020980835,1.684999942779541,
1558050127991,2.1540000438690186,,,242.18300708170187
1558050128051,,,,242.89136600052393
1558050128087,1.312000036239624,-3.188999891281128,3.1410000324249268,219.96266684360126
1558050128123,-0.9279999732971191,5.36299991607666,3.993000030517578,220.87970170194546
1558050128192,3.055000066757202,19.25,7.058000087738037,235.77149484743256
1558050128262,7.326000213623047,26.461000442504883,4.031000137329102,233.03290317895926
1558050128303,,,,210.18519640521458
1558050128334,-3.6010000705718994,5.229000091552734,1.340000033378601,193.7740686599932
1558050128370,,,,188.19747874986626
1558050128407,-2.690999984741211,-2.010999917984009,-0.11400000005960464,
1558050128408,,,,170.62240116533894
1558050128444,,,,170.08493357955064
1558050128480,-1.49399995803833,-3.236999988555908,2.9489998817443848,200.32942467818293
1558050128516,,,,199.91752329009614
1558050128522,1.1200000047683716,6.636000156402588,7.631999969482422,217.87194593866036
1558050128589,-0.4300000071525574,28.731000900268555,3.505000114440918,218.63420871041205
1558050128637,,,,286.59643510311486
1558050128663,3.6579999923706055,17.79400062561035,4.442999839782715,228.8163132156086
1558050128699,,,,228.24861521255383
1558050128734,2.98799991607666,2.872999906539917,-0.5360000133514404,185.31990639216156
1558050128769,,,,183.06366268287456
1558050128804,,-4.932000160217285,,
1558050128805,0.3540000021457672,,3.2170000076293945,222.40962309489328
1558050128841,,,,224.07680396940174
1558050128848,-2.5280001163482666,-1.7039999961853027,0.9959999918937683,184.6393600036398
1558050128913,,,,186.59584037063325
1558050128915,2.671999931335449,8.244999885559082,6.11899995803833,217.52288229093767
1558050128964,,,,216.93032239930403
1558050128986,17.11400032043457,33.31800079345703,1.9819999933242798,188.45320103239146
1558050129028,,,,188.7749302630558
1558050129059,-1.5889999866485596,15.428000450134277,5.927999973297119,252.88887098302246
1558050129095,,,,254.4325278863912
1558050129129,-3.619999885559082,2.700000047683716,0.5929999947547913,177.41255176643708
1558050129163,,,,172.4403106544512
1558050129197,-0.4020000100135803,-5.486999988555908,2.1449999809265137,
1558050129198,,,,219.05889621262514
1558050129232,,,,216.21027019662296
1558050129266,-4.414999961853027,-1.1679999828338623,3.7820000648498535,189.57153522595445
1558050129301,,,,187.13035731470018
1558050129311,3.2750000953674316,16.30900001525879,6.78000020980835,235.2232219023773
1558050129373,,,,238.03261531178697
1558050129400,3.9260001182556152,32.321998596191406,6.043000221252441,247.54803188228772
1558050129437,,,,249.13528588312863
1558050129452,4.031000137329102,6.923999786376953,-0.5070000290870667,194.31340771761415
1558050129508,,,,194.12753094954132
1558050129509,2.010999917984009,-2.8529999256134033,1.7710000276565552,226.47303923591733
1558050129580,,,,226.1465152124557
1558050129581,-0.23899999260902405,-4.730999946594238,2.490000009536743,212.60387567334283
1558050129625,,,,213.72587084830081
1558050129652,-0.8709999918937683,5.401000022888184,4.664000034332275,229.42291597617577
1558050129723,12.019000053405762,21.0310001373291,3.802000045776367,228.8742332197703
1558050129759,,,,202.50093306062672
1558050129795,7.642000198364258,30.281999588012695,8.581000328063965,225.35672677834873
1558050129830,,,,225.37870632709786
1558050129838,-2.4230000972747803,7.507999897003174,-1.1770000457763672,92.64308080759798
1558050129905,,,,96.71457706241011
1558050129906,-3.390000104904175,-2.2119998931884766,1.0529999732971191,175.42233026494375
1558050129952,,,,173.97457604771117
1558050129981,-1.378999948501587,-4.702000141143799,3.6679999828338623,198.7169262981697
1558050130021,,,,197.86850752022735
1558050130056,2.5950000286102295,5.056000232696533,5.439000129699707,215.62652124901865
1558050130093,,,,216.91002307709073
1558050130129,,24.78499984741211,,
1558050130130,-2.365000009536743,,4.040999889373779,322.00178959048105
1558050130166,,,,320.9796688566616
1558050130168,7.210999965667725,20.829999923706055,3.7920000553131104,
1558050130169,,,,218.01501108101542
1558050130240,4.6539998054504395,4.826000213623047,-0.1340000033378601,216.13345788921697
1558050130283,,,,192.3219431216918
1558050130309,,-5.553999900817871,2.240999937057495,
1558050130310,0.11400000005960464,,,218.3118647627225
1558050130371,-4.691999912261963,-0.8330000042915344,2.805999994277954,221.19857591353673
1558050130433,3.0160000324249268,8.053999900817871,6.224999904632568,186.39977296031884
1558050130495,,,,212.34413723958562
1558050130498,15.456999778747559,28.01300048828125,1.2450000047683716,188.94501563376753
1558050130554,,,,187.61991795364997
1558050130564,1.3880000114440918,19.85300064086914,3.734999895095825,238.3777720913044
1558050130614,,,,237.81601635282755
1558050130644,-3.9070000648498535,4.078999996185303,0.32499998807907104,173.56241511243593
1558050130705,0.02800000086426735,-6.291999816894531,1.5889999866485596,171.4652055277835
1558050130765,-8.10200023651123,1.8380000591278076,4.251999855041504,231.5060007296246
1558050130825,,,,186.11473550587596
1558050130830,0.8040000200271606,7.928999900817871,9.050000190734863,215.73624140784568
1558050130887,,,,216.84192609106572
1558050130894,11.003999710083008,40.42499923706055,2.565999984741211,
1558050130895,,,,200.93987966544205
1558050130948,,,,200.88066192533802
1558050130978,2.3550000190734863,8.829999923706055,1.2829999923706055,210.79287833567065
1558050131009,,,,210.4939892575909
1558050131038,1.1490000486373901,-1.3209999799728394,-0.1809999942779541,196.3479025053075
1558050131075,,,,192.0786108023209
1558050131099,1.819000005722046,-3.9549999237060547,4.059999942779541,221.36913939749024
1558050131159,-0.6029999852180481,1.781000018119812,2.9110000133514404,223.2961953095393
1558050131220,,,,218.8378029891918
1558050131224,3.609999895095825,23.847000122070312,5.372000217437744,227.80200280310498
1558050131281,,,,227.45897704260864
1558050131312,13.770999908447266,30.847000122070312,3.063999891281128,193.3785870466711
1558050131343,,,,194.73682480464151
1558050131375,-1.3209999799728394,10.362000465393066,2.068000078201294,292.0417146264483
1558050131406,,,,297.21066518653055
1558050131437,,-0.04699999839067459,1.9149999618530273,
1558050131438,-2.632999897003174,,,191.7707195349151
1558050131471,,,,189.0398733009606
1558050131500,-1.1200000047683716,-4.251999855041504,3.390000104904175,206.52517123657162
1558050131563,,,,204.84467149318164
1558050131564,-1.2059999704360962,2.0390000343322754,4.251999855041504,
1558050131629,2.805999994277954,19.680999755859375,2.2690000534057617,211.8283896553579
1558050131694,3.494999885559082,25.992000579833984,3.7060000896453857,234.0564753279774
1558050131760,5.564000129699707,8.024999618530273,0.5740000009536743,239.17358475225927
1558050131801,,,,197.5116711172293
1558050131825,1.1579999923706055,-2.0969998836517334,0.5929999947547913,247.14205226821133
1558050131867,,,,247.1932991775539
1558050131889,0.32499998807907104,-4.145999908447266,2.6040000915527344,221.44626589359802
1558050131953,0.6700000166893005,4.710999965667725,4.40500020980835,223.32448595308153
1558050132015,,,,221.72484198908614
1558050132016,5.515999794006348,22.266000747680664,6.1479997634887695,219.9881571095837
1558050132081,,,,218.76543030474636
1558050132082,5.4679999351501465,28.72100067138672,5.486999988555908,220.55808175430792
1558050132145,,,,220.7714158828441
1558050132148,-1.972000002861023,7.46999979019165,-0.746999979019165,63.364819232178036
1558050132211,,,,68.34320068422778
1558050132244,,-0.008999999612569809,,
1558050132245,-1.8769999742507935,,1.1770000457763672,188.06260983451511
1558050132278,,,,186.49769055226022
1558050132280,,-4.002999782562256,,
1558050132281,-2.3459999561309814,,2.700000047683716,194.17322491508878
1558050132344,,,,192.87274323674
1558050132346,,4.107999801635742,2.565999984741211,
1558050132347,3.3610000610351562,,,206.00730629370128
1558050132410,,,,206.87775926190602
1558050132412,1.8569999933242798,23.27199935913086,3.753999948501587,
1558050132413,,,,248.8587588443915
1558050132476,,,,249.9836841705034
1558050132478,4.797999858856201,26.393999099731445,3.4570000171661377,224.1725359008086
1558050132543,,,,223.20609145400852
1558050132577,5.420000076293945,7.690000057220459,-0.3540000021457672,190.27179354042073
1558050132609,,,,188.44848820186417
1558050132610,,-2.384000062942505,,
1558050132611,0.03799999877810478,,2.5369999408721924,209.8489461923749
1558050132675,,,,210.62096247426143
1558050132676,,-4.089000225067139,,
1558050132677,1.3209999799728394,,2.5369999408721924,224.9066446328016
1558050132741,,,,226.51182105002465
1558050132743,-4.2129998207092285,7.823999881744385,6.991000175476074,217.10592656286508
1558050132798,,,,217.7102070591144
1558050132808,24.277999877929688,25.368999481201172,-7.46999979019165,174.62139496211137
1558050132865,,,,173.8796090974913
1558050132898,1.034000039100647,23.655000686645508,6.340000152587891,237.32342310988622
1558050132930,,,,237.90810096321763
1558050132963,-1.5989999771118164,7.958000183105469,0.06700000166893005,5.203666277199318
1558050132995,,,,10.621240418825096
1558050133028,-2.7190001010894775,-3.1600000858306885,1.5219999551773071,189.20295089758383
1558050133062,,,,187.69459924203488
1558050133072,,-2.2119998931884766,2.7860000133514404,
1558050133073,-1.6080000400543213,,,198.60159172384488
1558050133130,,,,197.6349287109913
1558050133138,2.3940000534057617,7.585000038146973,3.562000036239624,214.78527416970485
1558050133198,,,,216.9166893417207
1558050133232,1.3020000457763672,25.111000061035156,0.6700000166893005,220.7890924124161
1558050133266,,,,222.713894362039
1558050133270,5.315000057220459,17.076000213623047,2.1449999809265137,206.0298049368273
1558050133332,,,,205.9922525567705
1558050133336,,8.753000259399414,-2.2209999561309814,
1558050133337,4.367000102996826,,,176.68210401583923
1558050133396,,,,175.32833320158602
1558050133402,,-1.7899999618530273,,
1558050133403,-0.6320000290870667,,1.406999945640564,200.87563490610887
1558050133461,,,,202.2989916876262
1558050133468,-1.6950000524520874,-4.309000015258789,2.308000087738037,
1558050133469,,,,199.15811553741753
1558050133533,,,,201.5305544248647
1558050133535,,10.696999549865723,,
1558050133536,-0.4399999976158142,,5.97599983215332,224.32718504399605
1558050133599,,,,222.40728717019715
1558050133604,,21.481000900268555,,
1558050133605,17.277000427246094,,0.5260000228881836,181.62802522122956
1558050133668,0.10499999672174454,16.44300079345703,1.1009999513626099,180.92252132148064
1558050133736,-0.4020000100135803,8.685999870300293,-1.2640000581741333,256.22656586435426
1558050133781,,,,97.02049440514583
1558050133802,-2.068000078201294,1.684999942779541,1.9819999933242798,200.11755221012913
1558050133868,-1.7999999523162842,-2.700000047683716,1.8960000276565552,199.10982609998553
1558050133938,3.7920000553131104,6.953000068664551,4.423999786376953,195.51661384180352
1558050133979,,,,202.33933078486427
1558050134007,,26.61400032043457,,
1558050134008,0.7179999947547913,,1.9819999933242798,247.26371842789672
1558050134045,,,,248.77598378184007
1558050134078,4.616000175476074,13.972999572753906,-0.5450000166893005,181.45817207694972
1558050134112,,,,180.83057331487385
1558050134146,2.8340001106262207,7.9770002365112305,-0.8330000042915344,175.49453902484913
1558050134180,,,,174.02532435324437
1558050134214,0.8709999918937683,2.2309999465942383,0.1809999942779541,188.83753577698815
1558050134248,,,,185.86669035597777
1558050134284,0.8999999761581421,1.5130000114440918,0.9860000014305115,197.36196703100086
1558050134320,,,,195.27589065469556
1558050134326,2.6429998874664307,6.953000068664551,2.490000009536743,196.76731710148124
1558050134391,,,,194.84158624613121
1558050134426,2.4030001163482666,15.083999633789062,3.4089999198913574,205.9362586659547
1558050134461,10.486000061035156,15.859000205993652,-0.7749999761581421,204.2981880576889
1558050134530,2.078000068664551,9.164999961853027,0.4020000100135803,173.79122644963135
1558050134601,0.621999979019165,4.309000015258789,-1.7999999523162842,180.30926595666187
1558050134638,,,,151.5566930784354
1558050134672,1.628000020980835,5.256999969482422,1.062999963760376,194.93119832804177
1558050134707,,,,202.31445523590708
1558050134742,1.684999942779541,6.061999797821045,5.63100004196167,203.34831364981528
1558050134777,,,,208.22138041505252
1558050134811,0.9860000014305115,7.6519999504089355,5.323999881744385,214.49326992230846
1558050134837,,,,222.8136697654346
1558050134871,4.3379998207092285,6.991000175476074,11.491999626159668,206.94143028534882
1558050134910,,,,213.17034424234703
1558050134944,,3.2750000953674316,,
1558050134945,2.0390000343322754,,11.204999923706055,206.3433106197308
1558050134977,,,,211.9005574341283
1558050134986,-0.3540000021457672,2.3359999656677246,7.010000228881836,206.88221254524478
1558050135042,,,,212.56674676501467
1558050135053,2.240999937057495,2.1540000438690186,10.888999938964844,216.48757587692546
1558050135108,,,,223.36023516319733
1558050135141,0.9480000138282776,1.350000023841858,10.151000022888184,217.53501270690356
1558050135174,,,,223.82410063048962
1558050135208,0.23899999260902405,1.2920000553131104,10.994000434875488,219.92087974625906
1558050135247,,,,225.17979755808875
1558050135250,1.6369999647140503,1.8960000276565552,9.98799991607666,234.96927546903623
1558050135315,,,,241.23201252280433
1558050135317,-0.1809999942779541,0.9480000138282776,9.960000038146973,227.50640587620524
1558050135384,0.4779999852180481,1.8669999837875366,9.307999610900879,234.12164899303764
1558050135453,,,,251.72187169162328
1558050135454,1.1579999923706055,2.3359999656677246,8.303000450134277,258.9512239469208
1558050135526,1.3589999675750732,1.9529999494552612,9.355999946594238,261.34907113808043
1558050135562,,,,257.93067757170496
1558050135597,1.3209999799728394,2.240999937057495,9.701000213623047,259.51078719467404
1558050135633,,,,259.9817560587031
1558050135669,0.5929999947547913,2.1740000247955322,9.42300033569336,260.0137145138296
1558050135705,,,,259.3031152929598
1558050135712,0.9670000076293945,2.2309999465942383,9.807000160217285,259.0907920324208
1558050135777,,,,258.60073278966155
1558050135778,,1.684999942779541,,
1558050135779,0.23899999260902405,,9.911999702453613,253.467886609532
1558050135846,0.0860000029206276,1.8960000276565552,9.164999961853027,252.76786735168656
1558050135915,0.3059999942779541,2.1059999465942383,9.336999893188477,254.7201334919621
1558050135958,,,,255.084189404913
1558050135983,-0.02800000086426735,2.193000078201294,8.972999572753906,256.3666462140421
1558050136024,,,,255.81684330661272
1558050136054,0.1809999942779541,2.240999937057495,9.355999946594238,255.59700000779753
1558050136091,,,,254.3387220683303
1558050136126,-0.11400000005960464,2.365000009536743,8.791000366210938,256.5805950596035
1558050136161,,,,255.91450818155477
1558050136196,-0.10499999672174454,2.4130001068115234,9.567000389099121,254.48534573924292
1558050136232,,,,254.43987033974895
1558050136240,0.15299999713897705,2.632999897003174,9.729999542236328,256.1534077081543
1558050136303,,,,256.0166468304031
1558050136338,-0.1340000033378601,2.5950000286102295,9.432999610900879,256.2116623915853
1558050136374,0.5260000228881836,2.872999906539917,9.826000213623047,256.0361538506727
1558050136444,,,,257.13384721256375
1558050136445,-0.3059999942779541,2.565999984741211,9.767999649047852,254.52528185531997
1558050136512,0.3059999942779541,2.7860000133514404,8.762999534606934,254.35900773016522
