timestamp,AccX,AccY,AccZ,CompassSensor
1558057725126,,3.006999969482422,,
1558057725127,-1.4170000553131104,,9.25100040435791,295.348912713136
1558057725170,,,,294.8453160354418
1558057725171,-1.3209999799728394,3.1600000858306885,9.336999893188477,295.24503236604926
1558057725239,-1.2640000581741333,3.312999963760376,8.991999626159668,295.002526499568
1558057725295,,,,296.07263955759055
1558057725298,,3.505000114440918,8.9350004196167,
1558057725299,-1.1009999513626099,,,296.7531859461123
1558057725361,,,,296.9435774692264
1558057725364,-1.1200000047683716,3.609999895095825,9.480999946594238,295.93293486830714
1558057725427,,,,295.68934983193697
1558057725430,-1.2920000553131104,3.5910000801086426,9.184000015258789,297.5406043045772
1558057725493,,,,297.08658113987894
1558057725497,,3.562000036239624,,
1558057725500,,,9.366000175476074,
1558057725501,-1.2920000553131104,,,296.20457149159853
1558057725563,-1.0240000486373901,3.9639999866485596,9.154999732971191,295.73194972179033
1558057725625,,,,296.998198492019
1558057725628,,4.193999767303467,,
1558057725629,-0.8999999761581421,,9.595999717712402,296.2820190065973
1558057725697,,,,294.75924882171046
1558057725698,,4.625,,
1558057725699,-1.9819999933242798,,8.972999572753906,307.2523580778645
1558057725758,,,,305.67900009689004
1558057725760,,4.691999912261963,10.03600025177002,
1558057725763,-1.9049999713897705,,,300.4240301344006
1558057725823,,,,297.86843972435946
1558057725828,-0.5649999976158142,4.758999824523926,9.01200008392334,294.6258347366526
1558057725893,-0.6600000262260437,5.802999973297119,6.8470001220703125,310.22602095190757
1558057725955,,,,302.95942367506603
1558057725964,,6.24399995803833,,
1558057725965,-0.008999999612569809,,6.961999893188477,298.6058610980999
1558057726021,,,,293.1504045929031
1558057726024,,7.5269999504089355,6.310999870300293,
1558057726026,0.8330000042915344,,,293.61671526791827
1558057726087,,,,288.13163623229116
1558057726090,0.5260000228881836,8.59000015258789,3.944999933242798,302.29117162705035
1558057726154,,,,296.68326529957886
1558057726156,,8.475000381469727,,
1558057726157,-0.8519999980926514,,5.927999973297119,303.62490266627873
1558057726222,,,,287.76013541314495
1558057726223,1.9529999494552612,7.901000022888184,-13.427000045776367,155.08772329441356
1558057726797,,8.83899974822998,,
1558057726798,2.2980000972747803,8.83899974822998,2.0490000247955322,254.09463159796155
1558057726821,,9.826000213623047,,199.20242980475257
1558057726822,1.1200000047683716,,-0.257999986410141,
1558057726880,,,,163.95503004476097
1558057726885,0.3059999942779541,9.480999946594238,-0.2770000100135803,134.6857843190454
1558057726902,0.6890000104904175,9.625,0.0949999988079071,180.36573796071957
1558057726922,0.9860000014305115,9.538000106811523,-0.05700000002980232,171.36573065271145
1558057726947,,9.883000373840332,,
1558057726948,1.0149999856948853,,-0.01899999938905239,173.15622376249524
1558057726963,0.7369999885559082,9.87399959564209,-0.3919999897480011,151.02535900252175
1558057726982,,9.73900032043457,,
1558057726983,0.6029999852180481,,-0.4399999976158142,143.54840555962215
1558057727012,0.7940000295639038,9.682000160217285,0.0949999988079071,180.34598505363988
1558057727023,0.5740000009536743,9.567000389099121,0.3160000145435333,199.95168789632453
1558057727042,,9.758999824523926,,
1558057727043,0.4880000054836273,,0.9670000076293945,226.85774281072906
1558057727062,0.6119999885559082,9.815999984741211,1.0149999856948853,222.51005419644918
1558057727077,,,,223.74323119071664
1558057727088,0.45899999141693115,9.807000160217285,0.45899999141693115,215.4618727088863
1558057727102,,9.54800033569336,0.20100000500679016,
1558057727103,0.8420000076293945,,,187.29567521337117
1558057727122,0.28700000047683716,9.604999542236328,0.24899999797344208,213.48364501957553
1558057727143,0.4880000054836273,9.37600040435791,0.05700000002980232,181.7631127026341
1558057727146,,,,181.62909073074002
1558057727162,,9.510000228881836,0.4300000071525574,205.55501116686298
1558057727163,0.621999979019165,,,
1558057727182,0.5450000166893005,9.652999877929688,0.8140000104904175,222.78130832914707
1558057727211,0.45899999141693115,9.73900032043457,0.6890000104904175,224.10585959413095
1558057727216,,,,224.8834356500019
1558057727227,,9.711000442504883,0.45899999141693115,
1558057727228,0.49799999594688416,,,213.80478685397117
1558057727242,,9.614999771118164,,
1558057727243,0.4300000071525574,,0.37299999594688416,212.88060761775512
1558057727262,,9.432999610900879,0.2290000021457672,
1558057727263,0.44999998807907104,,,200.5415976745603
1558057727275,,,,201.01430140663854
1558057727282,0.44999998807907104,9.385000228881836,0.2290000021457672,201.00387853796508
1558057727304,,9.633999824523926,,
1558057727305,0.20100000500679016,,-0.11400000005960464,148.27951367314992
1558057727322,,9.604999542236328,,
1558057727323,0.45899999141693115,,-0.23899999260902405,151.8488749107502
1558057727341,,,,151.4967923194144
1558057727342,0.4020000100135803,9.633999824523926,0.0860000029206276,187.41062729710245
1558057727366,0.3630000054836273,9.567000389099121,0.29600000381469727,212.1146838646082
1558057727382,,9.911999702453613,0.28700000047683716,192.72220586743288
1558057727383,0.8330000042915344,,,
1558057727406,,9.711000442504883,-0.05700000002980232,
1558057727407,0.19099999964237213,,,160.18897301944264
1558057727422,0.0860000029206276,9.682000160217285,0.20999999344348907,241.76617429703435
1558057727443,,9.682000160217285,,
1558057727444,0.3630000054836273,,0.5170000195503235,225.8588139842364
1558057727462,0.37299999594688416,9.777999877929688,0.746999979019165,231.96242129072152
1558057727476,,,,232.45665377906369
1558057727482,0.2290000021457672,9.682000160217285,0.8519999980926514,242.34940415026176
1558057727502,0.20100000500679016,9.652999877929688,0.5170000195503235,239.87048261365396
1558057727523,0.3059999942779541,9.701000213623047,0.5450000166893005,231.71576949941402
1558057727540,,,,231.84785169758374
1558057727546,0.14300000667572021,9.510000228881836,0.4399999976158142,243.97289913483877
1558057727562,,9.432999610900879,0.6320000290870667,236.92777757202407
1558057727563,0.2680000066757202,,,
1558057727582,0.1809999942779541,9.404000282287598,0.4399999976158142,239.630319502058
1558057727605,0.19099999964237213,9.442999839782715,0.37299999594688416,235.72291854205548
1558057727606,,,,236.4219747432279
1558057727622,0.3440000116825104,9.538000106811523,0.4880000054836273,227.28088669018973
1558057727642,0.2680000066757202,9.614999771118164,0.3440000116825104,226.14483498591983
1558057727671,0.2199999988079071,9.786999702453613,0.24899999797344208,223.72428424595904
1558057727684,0.3160000145435333,9.854000091552734,0.41100001335144043,226.6400646818808
1558057727702,0.49799999594688416,9.815999984741211,0.640999972820282,224.05453755270753
1558057727722,0.49799999594688416,9.644000053405762,0.5170000195503235,219.22976022490218
1558057727739,,,,219.59356342085374
1558057727744,0.5839999914169312,9.625,0.24899999797344208,199.73952856032565
1558057727762,,9.595999717712402,0.3440000116825104,
1558057727763,0.765999972820282,,,199.9213755167881
1558057727782,0.8420000076293945,9.682000160217285,0.20100000500679016,190.77743244467683
1558057727803,0.8610000014305115,9.67199993133545,0.24899999797344208,192.98049630108608
1558057727808,,,,193.78852134027693
1558057727826,0.8899999856948853,9.595999717712402,0.32499998807907104,196.9009292620251
1558057727842,,9.54800033569336,0.2290000021457672,
1558057727843,0.8610000014305115,,,192.7410981706771
1558057727870,0.7940000295639038,9.557000160217285,0.3440000116825104,199.97654978490345
1558057727883,,9.586000442504883,0.29600000381469727,199.86460298440693
1558057727884,0.7269999980926514,,,
1558057727902,0.7179999947547913,9.682000160217285,0.3919999897480011,205.29460337456703
1558057727922,0.7749999761581421,9.67199993133545,0.5740000009536743,211.22527029126752
1558057727935,,,,210.39724645818683
1558057727942,0.5740000009536743,9.586000442504883,0.5170000195503235,216.20297555458933
1558057727962,,9.614999771118164,,
1558057727963,0.5550000071525574,,0.29600000381469727,204.8083895283105
1558057727983,0.5550000071525574,9.652999877929688,0.3630000054836273,209.1611734637113
1558057728001,,,,209.47655061844745
1558057728002,0.6320000290870667,9.644000053405762,0.5070000290870667,213.44116124293805
1558057728025,0.6029999852180481,9.604999542236328,0.3440000116825104,206.23692359321876
1558057728042,0.640999972820282,9.614999771118164,0.2290000021457672,197.5503846294448
1558057728067,0.746999979019165,9.652999877929688,0.4300000071525574,205.6283810589273
1558057728068,,,,205.60832762352413
1558057728084,0.8040000200271606,9.586000442504883,0.3630000054836273,200.7546585955297
1558057728102,,9.595999717712402,0.41100001335144043,
1558057728103,1.034000039100647,,,197.8042627608943
1558057728122,1.1770000457763672,9.519000053405762,0.5740000009536743,200.53553246657725
1558057728136,,,,200.2862169014935
1558057728142,1.1770000457763672,9.42300033569336,0.7080000042915344,203.8690336117587
1558057728162,0.9570000171661377,9.567000389099121,0.5550000071525574,204.35267930688724
1558057728192,1.0240000486373901,9.711000442504883,0.7749999761581421,209.19516048502123
1558057728199,,,,209.6804864066857
1558057728202,1.0240000486373901,9.73900032043457,0.9279999732971191,213.16707941192374
1558057728222,1.0429999828338623,9.644000053405762,0.9380000233650208,212.80622685769367
1558057728247,1.1100000143051147,9.652999877929688,0.6320000290870667,203.80511670150577
1558057728265,1.1970000267028809,9.786999702453613,0.2770000100135803,190.9945231772565
1558057728282,1.1679999828338623,9.883000373840332,0.1340000033378601,186.3264303890113
1558057728302,0.9089999794960022,9.729999542236328,0.0949999988079071,186.1352807148993
1558057728331,0.8140000104904175,9.567000389099121,0.3630000054836273,201.11863937639964
1558057728342,0.8899999856948853,9.567000389099121,0.6600000262260437,210.48732299296097
1558057728362,0.9190000295639038,9.625,0.8899999856948853,215.5584379233719
1558057728382,0.9760000109672546,9.652999877929688,0.5450000166893005,204.53664362199243
1558057728397,,,,204.5830069460785
1558057728403,1.062999963760376,9.510000228881836,0.4880000054836273,200.6957550441275
1558057728422,,9.336999893188477,0.6320000290870667,
1558057728423,1.0529999732971191,,,205.34487356685838
1558057728442,1.062999963760376,9.355999946594238,0.7850000262260437,209.1879751260144
1558057728465,0.8140000104904175,9.510000228881836,0.5740000009536743,210.01192816634978
1558057728482,,9.510000228881836,,
1558057728483,0.7749999761581421,,0.5740000009536743,211.85461758177075
1558057728502,0.7940000295639038,9.701000213623047,0.6890000104904175,215.12409253367252
1558057728529,0.6890000104904175,9.625,0.6890000104904175,218.9745023952405
1558057728538,,,,218.10149493628614
1558057728543,,9.595999717712402,,
1558057728544,0.6600000262260437,,0.45899999141693115,210.5200395990853
1558057728562,,9.567000389099121,,
1558057728563,0.5740000009536743,,0.28700000047683716,204.2237663164924
1558057728582,0.4779999852180481,9.682000160217285,0.29600000381469727,209.29847392640687
1558057728595,,,,209.4980930350897
1558057728607,,9.682000160217285,,
1558057728608,0.4779999852180481,,0.5170000195503235,222.30602278556256
1558057728626,0.4690000116825104,9.604999542236328,0.9760000109672546,233.85844082318204
1558057728642,,9.633999824523926,0.9380000233650208,
1558057728645,0.5450000166893005,,,230.0190548869345
1558057728661,,,,229.7692065670954
1558057728662,0.5550000071525574,9.682000160217285,0.6320000290870667,222.15213862356217
1558057728691,0.5170000195503235,9.73900032043457,0.5740000009536743,222.07553122183128
1558057728702,0.3540000021457672,9.682000160217285,0.5740000009536743,232.1549370026675
1558057728727,0.4020000100135803,9.604999542236328,0.3440000116825104,217.14847864139426
1558057728742,0.41100001335144043,9.586000442504883,0.45899999141693115,223.18482224493312
1558057728763,0.4690000116825104,9.652999877929688,0.5929999947547913,225.21949461754485
1558057728782,,9.510000228881836,0.8040000200271606,
1558057728783,0.28700000047683716,,,240.95085461580993
1558057728793,,,,241.40241208221784
1558057728802,,9.442999839782715,1.0149999856948853,245.57726958973973
1558057728803,0.2290000021457672,,,
1558057728826,0.15299999713897705,9.366000175476074,1.2450000047683716,248.18265890901944
1558057728844,0.19099999964237213,9.529000282287598,1.062999963760376,247.52760961666934
1558057728860,,,,247.6882761565156
1558057728862,,9.729999542236328,0.9480000138282776,
1558057728863,0.3630000054836273,,,238.92594941371124
1558057728882,0.5450000166893005,9.86400032043457,1.2450000047683716,233.61379710749054
1558057728907,0.6510000228881836,9.883000373840332,1.1490000486373901,229.0128997202999
1558057728924,,9.786999702453613,,
1558057728925,0.6790000200271606,,1.034000039100647,226.42134836427863
1558057728942,,9.720000267028809,1.034000039100647,230.86455034391201
1558057728943,0.5740000009536743,,,
1558057728962,0.4779999852180481,9.682000160217285,0.8230000138282776,231.8525508677327
1558057728991,0.4690000116825104,9.567000389099121,0.9380000233650208,234.01038521145813
1558057728992,,,,234.69416910964645
1558057729009,0.4690000116825104,9.529000282287598,0.9380000233650208,234.65615227672617
1558057729023,,9.510000228881836,0.8330000042915344,
1558057729024,0.45899999141693115,,,233.5132157417729
1558057729042,0.45899999141693115,9.652999877929688,0.45899999141693115,221.73922636747824
1558057729057,,,,222.4691960048342
1558057729071,0.4779999852180481,9.614999771118164,0.5929999947547913,227.05962954221633
1558057729082,0.4690000116825104,9.633999824523926,0.7080000042915344,231.1051232668582
1558057729102,0.2680000066757202,9.442999839782715,0.7559999823570251,244.09677144562613
1558057729123,0.257999986410141,9.442999839782715,0.6890000104904175,243.8816614679057
1558057729124,,,,243.61662280735254
1558057729156,0.3059999942779541,9.42300033569336,0.5170000195503235,235.6171872137037
1558057729162,0.2680000066757202,9.42300033569336,0.5450000166893005,239.67941490181204
1558057729189,,9.42300033569336,0.6700000166893005,
1558057729190,0.4300000071525574,,,231.89666022939264
1558057729202,0.45899999141693115,9.442999839782715,0.6320000290870667,229.9721178269582
1558057729222,,9.567000389099121,0.9279999732971191,
1558057729223,0.7179999947547913,,,225.41705100909832
1558057729243,0.7749999761581421,9.652999877929688,0.7850000262260437,220.16370663163138
1558057729255,,,,220.32336913366964
1558057729264,0.8330000042915344,9.633999824523926,0.6320000290870667,213.78287560711374
1558057729282,0.9190000295639038,9.595999717712402,0.6700000166893005,212.34741573038718
1558057729302,1.090999960899353,9.604999542236328,0.7369999885559082,209.78698271622454
1558057729321,,,,209.82273192634034
1558057729322,1.1579999923706055,9.595999717712402,0.5740000009536743,203.78577360577628
1558057729344,1.2640000581741333,9.595999717712402,0.6890000104904175,204.98766833364505
1558057729362,,9.682000160217285,0.8040000200271606,
1558057729363,1.1579999923706055,,,210.02487820501608
1558057729390,1.1299999952316284,9.720000267028809,0.9279999732971191,213.4576083384594
1558057729407,,9.720000267028809,1.0149999856948853,218.92218314619817
1558057729408,1.0049999952316284,,,
1558057729426,,9.682000160217285,1.0820000171661377,228.25457113751008
1558057729427,0.7369999885559082,,,
1558057729442,0.8040000200271606,9.786999702453613,1.1679999828338623,227.32563808963164
1558057729457,,,,227.63049675304603
1558057729462,0.8230000138282776,9.777999877929688,1.1200000047683716,226.3797934933683
1558057729484,0.6790000200271606,9.767999649047852,1.062999963760376,230.4682627682679
1558057729502,,9.614999771118164,,
1558057729503,0.6600000262260437,,1.2350000143051147,232.87391003545974
1558057729520,,,,233.67540541380401
1558057729525,0.6029999852180481,9.614999771118164,1.406999945640564,236.6283830599457
1558057729542,0.5170000195503235,9.682000160217285,1.4359999895095825,239.60245233024438
1558057729563,0.4690000116825104,9.786999702453613,1.312000036239624,241.11894557128392
1558057729585,0.4880000054836273,9.729999542236328,1.1679999828338623,239.6673527877378
1558057729586,,,,239.20847335853966
1558057729602,0.45899999141693115,9.614999771118164,1.062999963760376,239.52804424942622
1558057729628,0.4300000071525574,9.5,0.8610000014305115,238.53176553633148
1558057729651,0.3630000054836273,9.5,0.3919999897480011,227.88143790315223
1558057729662,0.6320000290870667,9.395000457763672,0.3160000145435333,208.4119973344093
1558057729682,0.9190000295639038,9.45199966430664,0.4399999976158142,206.0288350499651
1558057729705,0.7179999947547913,9.510000228881836,0.5929999947547913,218.27133442018766
1558057729724,,,,216.63874162363618
1558057729725,0.6600000262260437,9.567000389099121,0.5740000009536743,218.31089487586036
1558057729742,0.6700000166893005,9.652999877929688,0.257999986410141,202.06119182148302
1558057729762,0.7559999823570251,9.633999824523926,0.257999986410141,199.82909966110117
1558057729789,0.8140000104904175,9.567000389099121,0.24899999797344208,198.06947900636578
1558057729802,0.8040000200271606,9.519000053405762,-0.20100000500679016,171.2152752456744
1558057729822,0.8519999980926514,9.510000228881836,-0.5839999914169312,154.98540706064676
1558057729850,0.8999999761581421,9.510000228881836,-0.5929999947547913,156.03686004185687
1558057729869,0.6600000262260437,9.557000160217285,-0.4880000054836273,151.02082375691288
1558057729882,0.6890000104904175,9.538000106811523,-0.5740000009536743,148.6455844919059
1558057729902,0.4300000071525574,9.489999771118164,-0.6890000104904175,132.33662271628955
1558057729915,,,,130.49740303696686
1558057729928,0.5550000071525574,9.54800033569336,-0.4690000116825104,145.4359693178902
1558057729947,0.6890000104904175,9.557000160217285,0.01899999938905239,181.35754973009705
1558057729962,0.9760000109672546,9.385000228881836,-0.05700000002980232,177.29117930488596
1558057729981,,,,174.7586681040503
1558057729982,0.8230000138282776,9.395000457763672,-0.12399999797344208,170.23213781654275
1558057730005,1.0149999856948853,9.633999824523926,-0.16200000047683716,170.12893365818385
1558057730025,1.1579999923706055,9.767999649047852,-0.1720000058412552,170.83748382230266
1558057730055,0.9860000014305115,9.595999717712402,0.0,177.47704241258035
1558057730056,,,,176.29160844061127
1558057730064,0.8420000076293945,9.586000442504883,-0.06700000166893005,172.38045087656522
1558057730083,0.7559999823570251,9.682000160217285,-0.3540000021457672,154.977019588346
1558057730102,0.8899999856948853,9.835000038146973,-0.0860000029206276,171.60883074565052
1558057730113,,,,171.10062369026656
1558057730122,0.9480000138282776,9.786999702453613,0.16200000047683716,183.75601163828208
1558057730145,0.8420000076293945,9.73900032043457,0.14300000667572021,183.77730816811413
1558057730164,0.7179999947547913,9.711000442504883,0.14300000667572021,185.2575877461743
1558057730179,,,,184.6291830217765
1558057730182,0.7179999947547913,9.729999542236328,0.3440000116825104,196.73043407996317
1558057730202,,9.807000160217285,,
1558057730208,0.8330000042915344,,0.5260000228881836,201.68480741708026
1558057730222,0.9380000233650208,9.73900032043457,0.6700000166893005,203.6551530680889
1558057730245,0.7940000295639038,9.625,0.3160000145435333,193.2495101317362
1558057730262,,9.557000160217285,,
1558057730263,0.7559999823570251,,0.3440000116825104,196.4105353399965
1558057730311,,,,195.76157174619686
1558057730328,,9.567000389099121,,
1558057730329,0.8809999823570251,,0.37299999594688416,194.1448796300332
1558057730384,,,,194.18793714256094
1558057730394,,9.729999542236328,0.37299999594688416,
1558057730395,0.7559999823570251,,,197.31578129183322
1558057730446,,,,196.88971409140788
1558057730460,0.5450000166893005,9.557000160217285,-0.1720000058412552,159.4110827748699
1558057730509,,,,159.57420135262814
1558057730526,,9.652999877929688,0.1809999942779541,
1558057730528,0.5450000166893005,,,190.9718606095904
1558057730575,,,,190.4969985377345
1558057730592,1.1490000486373901,9.614999771118164,-0.32499998807907104,162.94162121722783
1558057730641,,,,161.89434831178977
1558057730662,0.9380000233650208,9.489999771118164,-0.37299999594688416,156.5668963818282
1558057730707,,,,155.8312030459478
1558057730726,1.5509999990463257,9.45199966430664,-0.8809999823570251,153.51440287947946
1558057730773,,,,152.46834574771367
1558057730790,1.628000020980835,9.489999771118164,-0.4880000054836273,161.10731927410754
1558057730844,,,,161.4127243526555
1558057730859,1.6660000085830688,9.510000228881836,-0.5450000166893005,160.59374369003595
1558057730905,,,,159.9074872633681
1558057730922,1.684999942779541,9.395000457763672,-0.8230000138282776,155.11326820190942
1558057730981,,,,155.18887839602147
1558057730988,1.4839999675750732,9.567000389099121,-0.37299999594688416,161.8011845315108
1558057731037,,,,161.53621417284933
1558057731057,1.7519999742507935,9.644000053405762,-0.4779999852180481,161.7045646755118
1558057731103,,,,161.26853905927652
1558057731122,1.8380000591278076,9.395000457763672,-0.45899999141693115,162.491511750924
1558057731169,,,,162.59774851327435
1558057731186,2.0969998836517334,9.461999893188477,-0.3540000021457672,165.94734158414033
1558057731235,,,,165.16036718797145
1558057731252,1.9249999523162842,9.529000282287598,-0.11400000005960464,168.38499511778286
1558057731307,,,,167.62827845963713
1558057731322,1.7519999742507935,9.567000389099121,-0.3440000116825104,162.369743138401
1558057731373,,,,160.80658604495187
1558057731392,1.5800000429153442,9.42300033569336,-0.3440000116825104,159.46980874135366
1558057731433,,,,158.490646482319
1558057731453,1.7619999647140503,9.470999717712402,-0.3160000145435333,160.54474391293027
1558057731499,,,,159.95883662554823
1558057731516,,9.442999839782715,,
1558057731517,,,-0.4399999976158142,156.72848499721238
1558057731518,1.6660000085830688,,,
1558057731566,,,,156.36245515959138
1558057731582,,9.595999717712402,-0.5360000133514404,155.72343632122335
1558057731583,1.7899999618530273,,,
1558057731643,,,,155.43852181018542
1558057731664,2.0390000343322754,9.470999717712402,-0.06700000166893005,165.33426380423998
1558057731707,,,,165.8818400699999
1558057731728,,9.37600040435791,,
1558057731729,2.068000078201294,,-0.20100000500679016,163.8422499611857
1558057731769,,,,164.23331927230396
1558057731789,1.8480000495910645,9.37600040435791,-0.3160000145435333,161.03438651415016
1558057731830,,,,162.2936684914254
1558057731849,,9.510000228881836,-0.28700000047683716,
1558057731851,1.2350000143051147,,,157.39176466751232
1558057731895,,,,158.4924633126382
1558057731912,1.3209999799728394,9.74899959564209,-0.0860000029206276,165.25728757229393
1558057731965,,,,166.005862644949
1558057731985,,9.510000228881836,,
1558057731986,1.1579999923706055,,-0.1809999942779541,161.85674129021967
1558057732029,,,,162.9448860476511
1558057732050,1.350000023841858,9.45199966430664,-0.14300000667572021,165.64711378898323
1558057732093,,,,166.04471276094802
1558057732111,,9.529000282287598,0.06700000166893005,
1558057732113,1.2640000581741333,,,172.28234203932715
1558057732159,,,,173.0123526578181
1558057732176,1.2059999704360962,9.73900032043457,-0.2290000021457672,162.7676562990676
1558057732225,,,,163.1079226631393
1558057732249,1.1200000047683716,9.567000389099121,-0.28700000047683716,160.22149838027025
1558057732291,,,,160.12655875080708
1558057732309,1.253999948501587,9.480999946594238,-0.1720000058412552,165.43245460374808
1558057732359,,,,165.66043265786476
1558057732376,1.2730000019073486,9.633999824523926,-0.257999986410141,163.0390470355489
1558057732428,,,,163.49642382312962
1558057732449,1.1200000047683716,9.510000228881836,-0.04699999839067459,169.78227423704905
1558057732489,,,,169.3696351885319
1558057732509,1.3309999704360962,9.633999824523926,-0.3160000145435333,161.9509432592525
1558057732555,,,,161.81875177805608
1558057732588,,9.595999717712402,,
1558057732589,1.3209999799728394,,-0.257999986410141,163.44346253630533
1558057732624,,,,162.81233939661783
1558057732641,,9.57699966430664,-0.4300000071525574,157.64569744047503
1558057732642,1.3020000457763672,,,
1558057732687,,,,156.53797736088237
1558057732707,,9.595999717712402,-0.28700000047683716,159.2186353648156
1558057732708,1.1770000457763672,,,
1558057732753,,,,158.5159728237614
1558057732775,,9.557000160217285,-0.4020000100135803,152.58658998262493
1558057732820,,,,152.5355548091466
1558057732836,1.0529999732971191,9.54800033569336,-0.3919999897480011,152.89545113689292
1558057732894,,,,152.7016240286263
1558057732915,1.090999960899353,9.633999824523926,-0.4300000071525574,152.05977749194184
1558057732957,,,,151.18231674964866
1558057732978,1.090999960899353,9.633999824523926,-0.5450000166893005,147.51404071248825
1558057733020,,,,147.20169616174357
1558057733041,1.034000039100647,9.604999542236328,-0.5170000195503235,146.80702051074354
1558057733101,1.034000039100647,9.567000389099121,-0.5740000009536743,146.45272493811666
1558057733149,,,,144.47605453193663
1558057733166,0.9760000109672546,9.604999542236328,-0.7179999947547913,138.81015306822258
1558057733218,,,,138.67368588860572
1558057733239,0.9760000109672546,9.557000160217285,-0.621999979019165,141.39604902761107
1558057733281,,,,140.97539133700832
1558057733299,0.9760000109672546,9.567000389099121,-0.6320000290870667,140.67080588116076
1558057733347,,,,140.37373363340024
1558057733364,1.0049999952316284,9.510000228881836,-0.7080000042915344,139.14412199787952
1558057733413,,,,138.47755017639963
1558057733430,0.9190000295639038,9.557000160217285,-0.6320000290870667,138.0420163337846
1558057733479,,,,137.36357364352725
1558057733497,1.0820000171661377,9.510000228881836,-0.5170000195503235,145.26644402269048
1558057733562,,9.652999877929688,-0.5170000195503235,145.26644402269048
1558057733563,1.531999945640564,,,
1558057733622,,,,151.96634050409608
1558057733628,1.350000023841858,9.633999824523926,-0.6990000009536743,144.9884280027143
1558057733681,,,,145.6123384626383
1558057733694,0.7369999885559082,9.519000053405762,-1.1299999952316284,121.09876221070584
1558057733743,,,,121.4663493314576
1558057733761,,9.461999893188477,,
1558057733762,1.034000039100647,,-0.7080000042915344,138.76663110283127
1558057733809,,,,137.96609195097074
1558057733833,1.1679999828338623,9.663000106811523,-0.8040000200271606,138.9281104351887
1558057733877,,,,138.87555895971462
1558057733897,1.49399995803833,9.404000282287598,-1.1200000047683716,140.69714309060035
1558057733941,,,,139.64771184538455
1558057733961,1.5410000085830688,9.461999893188477,-1.1490000486373901,140.0468681004801
1558057734008,,,,139.8100108004424
1558057734024,,9.567000389099121,-1.2350000143051147,
1558057734025,1.4259999990463257,,,136.43879335066418
1558057734073,,,,136.35021945750748
1558057734090,1.1579999923706055,9.461999893188477,-1.340000033378601,129.50769496585366
1558057734139,,,,129.1132105601504
1558057734161,1.0529999732971191,9.595999717712402,-1.1100000143051147,128.7170049467763
1558057734205,,,,128.46432892862086
1558057734222,,9.529000282287598,,
1558057734223,1.1579999923706055,,-1.1770000457763672,130.4693992613698
1558057734276,,,,129.21372362397634
1558057734288,,9.442999839782715,-1.1200000047683716,133.1041720544589
1558057734289,1.2829999923706055,,,
1558057734342,,,,132.87152215094994
1558057734362,,9.489999771118164,,
1558057734363,1.2640000581741333,,-1.0049999952316284,134.09908472971964
1558057734405,,,,133.98783460851848
1558057734427,,9.595999717712402,,
1558057734428,1.2640000581741333,,-0.8610000014305115,136.42600723653794
1558057734489,1.2640000581741333,9.557000160217285,-1.0049999952316284,136.4995137323856
1558057734549,,,,134.22704149363065
1558057734552,1.3020000457763672,9.489999771118164,-0.8899999856948853,137.17928147934197
1558057734612,,,,137.3238082821794
1558057734618,1.2350000143051147,9.519000053405762,-0.8999999761581421,135.58978717645326
1558057734677,,,,136.3821164409314
1558057734684,1.1770000457763672,9.633999824523926,-0.8230000138282776,136.398249347751
1558057734738,,,,136.4608138805483
1558057734750,,9.711000442504883,-0.5070000290870667,126.22904023970747
1558057734751,0.6029999852180481,,,
1558057734800,,,,127.62783566096942
1558057734821,1.1490000486373901,9.567000389099121,-0.765999972820282,138.35916933770497
1558057734865,,,,139.15830147059646
1558057734885,1.0820000171661377,9.567000389099121,-0.8140000104904175,136.39044927171884
1558057734931,,,,136.09890947718603
1558057734949,1.090999960899353,9.57699966430664,-0.5450000166893005,143.3928958125993
1558057734997,,,,144.0819252960702
1558057735014,,9.54800033569336,-0.6890000104904175,
1558057735015,1.0240000486373901,,,138.26857370855393
1558057735063,,,,139.05911346346954
1558057735098,1.0820000171661377,9.538000106811523,-0.6990000009536743,140.31737091236928
1558057735139,,,,139.3102185381159
1558057735160,0.9480000138282776,9.633999824523926,-0.6990000009536743,135.5039590193429
1558057735201,,,,135.84512696838502
1558057735221,,9.57699966430664,,
1558057735222,0.9570000171661377,,-0.7179999947547913,135.65593072837567
1558057735268,,,,135.58738294986543
1558057735289,0.9190000295639038,9.595999717712402,-0.8330000042915344,131.5715322462214
1558057735330,,,,131.27036188495887
1558057735350,0.9670000076293945,9.567000389099121,-0.765999972820282,134.38018799520069
1558057735370,0.9670000076293945,9.567000389099121,-0.6990000009536743,136.12969996996443
1558057735393,0.9760000109672546,9.557000160217285,-0.746999979019165,135.1364948419962
1558057735394,,,,135.30309681623115
1558057735409,0.9190000295639038,9.54800033569336,-0.6990000009536743,134.8604595768793
1558057735424,1.0049999952316284,9.567000389099121,-0.6510000228881836,138.73037645871682
1558057735449,,9.567000389099121,,
1558057735450,0.9670000076293945,,-0.6890000104904175,136.5760255114681
1558057735469,0.9380000233650208,9.567000389099121,-0.6890000104904175,136.30458013347345
1558057735486,1.0049999952316284,9.557000160217285,-0.6890000104904175,137.40220519347284
1558057735504,,9.604999542236328,-0.621999979019165,139.03280357478664
1558057735505,0.9959999918937683,,,
1558057735533,,9.595999717712402,,
1558057735534,0.9480000138282776,,-0.6600000262260437,136.54218875431985
1558057735544,0.8999999761581421,9.595999717712402,-0.765999972820282,133.13893771733427
1558057735564,0.8899999856948853,9.567000389099121,-0.7080000042915344,134.36857667361167
1558057735590,,9.57699966430664,,
1558057735591,0.9480000138282776,,-0.6510000228881836,137.78496899456036
1558057735592,,,,137.17628985648548
1558057735608,,9.57699966430664,-0.6029999852180481,137.77647223923285
1558057735609,0.9190000295639038,,,
1558057735624,0.9190000295639038,9.557000160217285,-0.6990000009536743,134.94139731854395
1558057735644,0.9190000295639038,9.595999717712402,-0.621999979019165,137.16238359133536
1558057735657,,,,136.7687597894675
1558057735673,0.9190000295639038,9.57699966430664,-0.7369999885559082,133.50017276215792
1558057735684,0.9670000076293945,9.567000389099121,-0.5550000071525574,140.33355846070222
1558057735704,0.9190000295639038,9.614999771118164,-0.6700000166893005,135.30958549594266
1558057735723,,,,135.6964474105322
1558057735724,0.8999999761581421,9.595999717712402,-0.7850000262260437,132.0339497134096
1558057735744,0.9480000138282776,9.567000389099121,-0.5740000009536743,139.57155523613892
1558057735764,0.9480000138282776,9.529000282287598,-0.6510000228881836,137.21328216103026
1558057735799,0.9380000233650208,9.595999717712402,-0.7179999947547913,134.9589918858459
1558057735819,0.9670000076293945,9.604999542236328,-0.6320000290870667,138.31425401372297
1558057735824,0.9480000138282776,9.625,-0.6890000104904175,136.07994887205007
1558057735844,,9.595999717712402,-0.6890000104904175,136.67111540509302
1558057735845,0.9670000076293945,,,
1558057735859,,,,136.2931054156678
1558057735864,,9.557000160217285,-0.7080000042915344,136.07567317362964
1558057735865,0.9760000109672546,,,
1558057735884,,9.538000106811523,-0.6990000009536743,
1558057735885,0.9670000076293945,,,136.07433445655232
1558057735904,,9.519000053405762,,
1558057735905,0.9190000295639038,,-0.7749999761581421,132.64264251186282
1558057735927,0.9570000171661377,9.595999717712402,-0.765999972820282,132.44343321453022
1558057735950,0.9089999794960022,9.57699966430664,-0.8040000200271606,131.3584576648737
1558057735973,0.9570000171661377,9.567000389099121,-0.7850000262260437,133.33398059927316
1558057735994,0.9190000295639038,9.595999717712402,-0.621999979019165,136.6303255153697
1558057736004,0.9380000233650208,9.595999717712402,-0.7080000042915344,135.32446164795496
1558057736036,,9.595999717712402,,
1558057736037,0.8809999823570251,,-0.6600000262260437,134.89612682472512
1558057736057,,9.54800033569336,,
1558057736058,0.8899999856948853,,-0.8230000138282776,130.95162427715104
1558057736064,0.9089999794960022,9.557000160217285,-0.746999979019165,132.75514938787126
1558057736084,0.8709999918937683,9.625,-0.5839999914169312,136.31479809647178
1558057736104,0.8899999856948853,9.57699966430664,-0.6700000166893005,134.25407538236558
1558057736121,,,,134.56152951766452
1558057736124,,9.614999771118164,,
1558057736125,0.9760000109672546,,-0.7369999885559082,135.3258823273023
1558057736144,,9.54800033569336,-0.7080000042915344,
1558057736145,0.9959999918937683,,,136.73649397582838
1558057736166,0.9860000014305115,9.57699966430664,-0.765999972820282,134.92179467562602
1558057736189,1.034000039100647,9.633999824523926,-0.7179999947547913,137.44442942292184
1558057736212,1.062999963760376,9.633999824523926,-0.6890000104904175,140.0946794246702
1558057736224,1.1579999923706055,9.595999717712402,-0.6700000166893005,142.91649011799092
1558057736256,1.2059999704360962,9.557000160217285,-0.746999979019165,142.1183688530966
1558057736279,1.406999945640564,9.25100040435791,-0.5450000166893005,150.24028339894215
1558057736285,1.034000039100647,9.480999946594238,-0.9279999732971191,133.1404813400867
1558057736304,1.034000039100647,9.510000228881836,-0.9480000138282776,132.72669481978897
1558057736324,,,,132.92702426814546
1558057736326,0.9670000076293945,9.567000389099121,-0.8230000138282776,133.5043664983083
1558057736348,0.8610000014305115,9.567000389099121,-0.8040000200271606,130.54599300272233
1558057736370,,9.604999542236328,-1.0149999856948853,
1558057736371,0.8330000042915344,,,125.37866802766254
1558057736383,,,,125.48777346946434
1558057736393,0.7179999947547913,9.480999946594238,-1.0820000171661377,120.61567659108917
1558057736416,0.8420000076293945,9.529000282287598,-0.9480000138282776,127.03119131621213
1558057736424,0.8140000104904175,9.557000160217285,-0.8610000014305115,127.72799355495846
1558057736457,,9.663000106811523,,
1558057736458,0.8140000104904175,,-0.8999999761581421,126.80192918653148
1558057736479,0.640999972820282,9.652999877929688,-0.8519999980926514,120.91198385766268
1558057736484,0.7749999761581421,9.644000053405762,-0.9279999732971191,124.87327501021662
1558057736504,0.8140000104904175,9.57699966430664,-0.7749999761581421,129.69215105457903
1558057736522,,,,129.47698643534528
1558057736524,,9.538000106811523,,
1558057736525,0.765999972820282,,-0.8140000104904175,126.788091223273
1558057736545,0.7179999947547913,9.692000389099121,-0.9190000295639038,122.57344103364659
1558057736568,0.6890000104904175,9.633999824523926,-0.6700000166893005,127.38876537964063
1558057736592,0.6510000228881836,9.595999717712402,-0.6320000290870667,127.37921677518094
1558057736615,0.7559999823570251,9.614999771118164,-0.7749999761581421,127.25813118157495
1558057736639,,9.595999717712402,,
1558057736640,0.8610000014305115,,-0.8230000138282776,129.97334994270847
1558057736647,1.1100000143051147,9.42300033569336,-0.8330000042915344,137.32350775385595
1558057736665,0.9190000295639038,9.538000106811523,-0.9959999918937683,128.16746158653544
1558057736690,0.9480000138282776,9.567000389099121,-0.765999972820282,133.8472966361563
1558057736712,,9.595999717712402,,
1558057736713,0.9860000014305115,,-0.8610000014305115,132.75655640684028
1558057736731,0.9959999918937683,9.538000106811523,-1.062999963760376,132.8800052458991
1558057736744,,9.510000228881836,,
1558057736752,1.090999960899353,,-0.9760000109672546,133.66598243444915
1558057736773,1.1299999952316284,9.510000228881836,-1.0049999952316284,134.17479054648007
1558057736794,1.090999960899353,9.567000389099121,-1.1770000457763672,133.71093873956616
1558057736804,0.9190000295639038,9.652999877929688,-1.1200000047683716,125.76349454587938
1558057736837,0.8040000200271606,9.625,-0.8519999980926514,126.55311905544625
1558057736859,,9.489999771118164,-0.765999972820282,126.90174557106201
1558057736881,0.9670000076293945,9.767999649047852,-0.8809999823570251,130.79559543575127
1558057736906,1.062999963760376,9.663000106811523,-0.7080000042915344,137.72841502823263
1558057736912,0.746999979019165,9.567000389099121,-0.7749999761581421,125.77651288643744
1558057736928,0.8330000042915344,9.557000160217285,-0.7850000262260437,128.59101527734626
1558057736951,0.9089999794960022,9.510000228881836,-0.6700000166893005,134.29220149831258
1558057736973,0.8519999980926514,9.442999839782715,-0.9480000138282776,125.97308573075043
1558057736979,,,,125.62682246058745
1558057736996,1.1200000047683716,9.184000015258789,-0.7080000042915344,139.15147128142647
1558057737004,0.765999972820282,9.385000228881836,-1.1100000143051147,120.31120041826836
1558057737024,0.8999999761581421,9.510000228881836,-0.9760000109672546,126.65464298726931
1558057737062,,9.567000389099121,-0.9480000138282776,126.51555301501116
1558057737063,0.9190000295639038,,,
1558057737064,,9.701000213623047,-0.9670000076293945,
1558057737065,0.9089999794960022,,,126.71738510498506
1558057737087,0.8999999761581421,9.652999877929688,-1.0149999856948853,125.67690140758197
1558057737110,0.8899999856948853,9.54800033569336,-0.9760000109672546,126.13720151612748
1558057737131,0.8899999856948853,9.480999946594238,-1.1200000047683716,123.69825024654264
1558057737154,0.9480000138282776,9.519000053405762,-1.1579999923706055,124.96262754493873
1558057737165,0.9860000014305115,9.682000160217285,-1.1299999952316284,126.21477880472048
1558057737177,,,,125.39398131178172
1558057737200,0.9760000109672546,9.652999877929688,-1.062999963760376,126.09227253176715
1558057737204,0.8420000076293945,9.529000282287598,-1.350000023841858,119.05553844125319
1558057737224,,9.54800033569336,,
1558057737225,0.8040000200271606,,-1.2920000553131104,118.24176238278119
1558057737248,0.9760000109672546,9.432999610900879,-1.312000036239624,118.13667309221137
1558057737270,0.9480000138282776,9.480999946594238,-1.340000033378601,122.26225761506083
1558057737293,0.8420000076293945,9.538000106811523,-1.3589999675750732,118.88552137243323
1558057737307,1.0240000486373901,9.557000160217285,-1.034000039100647,127.9611762132227
1558057737324,0.8899999856948853,9.510000228881836,-1.2059999704360962,121.5248567318879
1558057737362,0.8519999980926514,9.54800033569336,-1.2920000553131104,119.47190677305719
1558057737386,0.8519999980926514,9.42300033569336,-1.1770000457763672,120.75803139377058
1558057737410,0.7749999761581421,9.538000106811523,-1.1770000457763672,117.27247657728634
1558057737434,0.6600000262260437,9.567000389099121,-1.2350000143051147,112.6053058645791
1558057737439,,,,113.08299563475146
1558057737444,0.6890000104904175,9.595999717712402,-1.2059999704360962,114.31692394982758
1558057737464,0.7269999980926514,9.54800033569336,-1.225000023841858,115.60110196662754
1558057737484,,9.614999771118164,,
1558057737485,0.7940000295639038,,-1.340000033378601,116.8747136807815
1558057737507,0.8040000200271606,9.567000389099121,-1.2450000047683716,118.02438478225639
1558057737508,,,,117.4774778750351
1558057737530,,9.510000228881836,,
1558057737531,0.6890000104904175,,-1.378999948501587,112.82680889936262
1558057737544,,9.510000228881836,,
1558057737553,0.7369999885559082,,-1.1970000267028809,115.71284386144896
1558057737577,0.8610000014305115,9.510000228881836,-1.0149999856948853,122.3653798111497
1558057737584,0.8809999823570251,9.529000282287598,-1.1770000457763672,119.99340537656599
1558057737604,0.765999972820282,9.470999717712402,-1.3880000114440918,114.54050336211878
1558057737624,0.7749999761581421,9.432999610900879,-1.2450000047683716,115.92962040532683
1558057737637,,,,115.29627062396989
1558057737647,0.8330000042915344,9.489999771118164,-1.1770000457763672,117.86943511074548
1558057737670,0.8040000200271606,9.644000053405762,-1.1490000486373901,116.98914667013588
1558057737684,0.7749999761581421,9.692000389099121,-1.2350000143051147,114.98564728089605
1558057737717,0.7559999823570251,9.86400032043457,-1.2450000047683716,115.05722766339778
1558057737724,0.7559999823570251,9.892999649047852,-1.1970000267028809,114.47725581040447
1558057737744,0.9190000295639038,9.911999702453613,-1.090999960899353,121.31593490555557
1558057737768,,9.633999824523926,,
1558057737769,0.9760000109672546,,-1.062999963760376,123.89674920420157
1558057737770,,,,123.51104842177094
1558057737789,0.9190000295639038,9.395000457763672,-1.2450000047683716,119.65782452226492
1558057737813,0.9670000076293945,9.307999610900879,-1.312000036239624,120.53607756650183
1558057737824,1.1200000047683716,9.395000457763672,-1.312000036239624,124.58200842325061
1558057737837,,,,124.52628774000164
1558057737861,1.1390000581741333,9.173999786376953,-1.340000033378601,125.07221109998241
1558057737864,,8.991999626159668,,
1558057737865,0.9190000295639038,,-1.350000023841858,119.28070245743186
1558057737887,0.7269999980926514,9.279999732971191,-1.1100000143051147,114.80897760782449
1558057737911,0.8040000200271606,9.835000038146973,-1.1579999923706055,114.76102967985099
1558057737936,0.8040000200271606,9.949999809265137,-1.2920000553131104,114.57656676093649
1558057737944,0.7940000295639038,9.854000091552734,-0.8519999980926514,120.97072348452477
1558057737967,0.9480000138282776,9.37600040435791,-0.7850000262260437,128.46192470203303
1558057737986,1.090999960899353,9.25100040435791,-1.0429999828338623,127.53998576786469
1558057738010,1.1679999828338623,9.366000175476074,-0.9279999732971191,131.49857216550734
1558057738035,1.2829999923706055,9.519000053405762,-1.0429999828338623,132.0134318251429
1558057738044,,9.529000282287598,,
1558057738045,1.2350000143051147,,-1.1299999952316284,129.13850958083614
1558057738084,1.225000023841858,9.298999786376953,-1.0820000171661377,129.9424501669033
1558057738109,1.406999945640564,9.404000282287598,-0.9959999918937683,135.94132335265547
1558057738124,1.4170000553131104,9.404000282287598,-1.034000039100647,134.94261309221622
1558057738158,,9.480999946594238,-1.062999963760376,134.38283810859866
1558057738159,1.4170000553131104,,,
1558057738165,1.3020000457763672,9.567000389099121,-0.9670000076293945,133.41065630289572
1558057738186,1.0049999952316284,9.633999824523926,-1.0820000171661377,124.14924763743858
1558057738208,,9.633999824523926,-0.8610000014305115,
1558057738209,1.1579999923706055,,,132.43458128936587
1558057738233,,9.73900032043457,,
1558057738234,1.1679999828338623,,-0.9670000076293945,130.46862061980443
1558057738244,1.1390000581741333,9.777999877929688,-0.9279999732971191,130.8040375495654
1558057738264,1.0429999828338623,9.604999542236328,-0.8140000104904175,130.79442064321404
1558057738285,1.0049999952316284,9.470999717712402,-0.8330000042915344,129.4115259023399
1558057738297,,,,128.84261212561285
1558057738306,1.1299999952316284,9.470999717712402,-0.9480000138282776,130.0308328147633
1558057738331,1.090999960899353,9.510000228881836,-0.9670000076293945,128.57613912533398
1558057738344,0.9959999918937683,9.461999893188477,-1.1100000143051147,123.61325537251099
1558057738378,,,,123.96962732264558
1558057738379,0.9570000171661377,9.480999946594238,-1.0149999856948853,124.17684160168545
1558057738402,1.0820000171661377,9.519000053405762,-1.062999963760376,127.04817116648877
1558057738404,,9.510000228881836,-1.1200000047683716,126.22349412610143
1558057738405,1.0820000171661377,,,
1558057738429,1.0429999828338623,9.480999946594238,-0.9670000076293945,127.5931929414991
1558057738452,1.0820000171661377,9.633999824523926,-0.9480000138282776,129.35707563427655
1558057738477,,9.692000389099121,-1.0049999952316284,
1558057738478,1.034000039100647,,,126.9062398355359
1558057738484,,9.79699993133545,-0.9760000109672546,127.81958639172834
1558057738485,1.0529999732971191,,,
1558057738502,,,,127.07277350787916
1558057738504,,9.595999717712402,,
1558057738505,0.9190000295639038,,-1.034000039100647,122.26358267175982
1558057738529,0.8809999823570251,9.480999946594238,-1.0429999828338623,121.03709926287894
1558057738547,0.9190000295639038,9.45199966430664,-1.062999963760376,122.03533141007631
1558057738572,0.8899999856948853,9.529000282287598,-1.0429999828338623,121.26772743039362
1558057738576,,,,122.00531955886328
1558057738596,0.9089999794960022,9.57699966430664,-1.0429999828338623,122.56165212713915
1558057738604,0.9959999918937683,9.510000228881836,-0.9279999732971191,127.3956228895673
1558057738630,0.9760000109672546,9.489999771118164,-1.0820000171661377,124.20250945258636
1558057738654,,9.510000228881836,-1.2450000047683716,122.36547543379805
1558057738655,0.9670000076293945,,,
1558057738678,1.0049999952316284,9.510000228881836,-1.0049999952316284,126.77589250541536
1558057738702,1.034000039100647,9.538000106811523,-1.1299999952316284,125.6649622369128
1558057738704,1.0240000486373901,9.663000106811523,-1.1490000486373901,124.14663850517564
1558057738727,0.9760000109672546,9.682000160217285,-1.1299999952316284,122.95847245753856
1558057738751,0.9860000014305115,9.57699966430664,-1.062999963760376,124.37988946533159
1558057738776,,,,123.95995577478084
1558057738810,0.9670000076293945,9.510000228881836,-0.9959999918937683,124.5599878933665
1558057738828,,,,125.1015945737918
1558057738876,0.9760000109672546,9.567000389099121,-0.9480000138282776,126.17180325446276
1558057738901,,,,125.94035546424772
1558057738946,0.9380000233650208,9.480999946594238,-0.9760000109672546,124.33918153787829
1558057738971,,,,124.4792140762419
1558057739022,,9.538000106811523,,
1558057739023,0.8610000014305115,,-1.034000039100647,120.87631660981685
1558057739074,0.8519999980926514,9.663000106811523,-1.0049999952316284,121.10287398458618
1558057739097,,,,120.03819775714294
1558057739147,0.8809999823570251,9.461999893188477,-1.062999963760376,120.39211083917633
1558057739155,,,,120.96019133282462
1558057739206,0.9480000138282776,9.519000053405762,-1.0149999856948853,123.81697259469581
1558057739221,,,,124.49120788842444
1558057739273,0.9480000138282776,9.57699966430664,-0.9760000109672546,125.10138966811672
1558057739298,,,,125.89763946117847
1558057739349,,9.614999771118164,-1.0049999952316284,
1558057739350,0.9380000233650208,,,125.02071147364052
1558057739353,,,,124.69503439363598
1558057739404,0.9380000233650208,9.557000160217285,-0.8330000042915344,128.2107240047383
1558057739424,,,,128.21646136364112
1558057739473,1.062999963760376,9.595999717712402,-0.8809999823570251,130.8519171756472
1558057739497,,,,130.91934480313355
1558057739536,1.1679999828338623,9.510000228881836,-0.9190000295639038,133.02798812445658
1558057739572,,,,132.42495072263617
1558057739622,1.0429999828338623,9.625,-0.7850000262260437,131.90290570399375
1558057739672,0.8809999823570251,9.557000160217285,-1.062999963760376,122.42753453259678
1558057739696,,,,121.58500337771903
1558057739745,,9.633999824523926,-1.062999963760376,
1558057739746,0.8709999918937683,,,121.1444151951182
1558057739749,,,,120.79447728318178
1558057739800,0.8709999918937683,9.567000389099121,-1.062999963760376,120.8893759315099
1558057739820,,,,120.79563841534065
1558057739889,0.8040000200271606,9.510000228881836,-0.9670000076293945,120.0726902124515
1558057739938,0.8040000200271606,9.557000160217285,-0.9959999918937683,119.73949992435993
1558057739963,,,,120.13051459396485
1558057740011,0.9480000138282776,9.510000228881836,-0.8999999761581421,126.87902836188255
1558057740013,,,,126.83986405718173
1558057740067,1.0240000486373901,9.567000389099121,-0.9480000138282776,128.12768256480928
1558057740086,,,,128.57842040851676
1558057740136,,9.663000106811523,-1.034000039100647,124.62962850214393
1558057740137,0.9480000138282776,,,
1558057740156,,,,124.79765115572624
1558057740204,0.8899999856948853,9.470999717712402,-1.1490000486373901,121.58524926452918
1558057740211,,,,121.39019272221194
1558057740276,,9.57699966430664,,
1558057740277,0.8709999918937683,,-1.1770000457763672,120.28092901986685
1558057740279,,,,120.68045410517757
1558057740328,0.8899999856948853,9.604999542236328,-1.225000023841858,120.69989282355544
1558057740350,,,,120.66893840623692
1558057740396,0.8420000076293945,9.489999771118164,-1.1490000486373901,120.15906478469549
1558057740421,,,,119.7329019616217
1558057740469,0.765999972820282,9.470999717712402,-1.2920000553131104,115.82787790745033
1558057740476,,,,115.74296499568871
1558057740544,0.8230000138282776,9.633999824523926,-1.062999963760376,119.90375231352039
1558057740596,,9.633999824523926,-0.8040000200271606,
1558057740597,0.9860000014305115,,,129.61110402988766
1558057740622,,,,130.1870119203248
1558057740674,,9.557000160217285,-0.6700000166893005,126.69070638608696
1558057740675,0.7749999761581421,,,127.190840157872
1558057740727,0.8899999856948853,9.633999824523926,-0.6320000290870667,132.400116154814
1558057740753,,,,133.0691605047734
1558057740790,0.8140000104904175,9.567000389099121,-0.8230000138282776,125.21351405353164
1558057740807,,,,125.6378327255295
1558057740858,0.8140000104904175,9.595999717712402,-0.6700000166893005,129.73038645355277
1558057740884,,,,129.7925548353782
1558057740938,0.8330000042915344,9.633999824523926,-0.6600000262260437,130.74731965869762
1558057740991,1.034000039100647,9.567000389099121,-0.7749999761581421,134.1133325043283
1558057741015,,,,134.7354807754464
1558057741067,1.0049999952316284,9.538000106811523,-0.8519999980926514,132.14222187213264
1558057741070,,,,133.11262782865137
1558057741120,1.034000039100647,9.57699966430664,-0.8999999761581421,132.88016917043916
1558057741141,,,,132.6462898328796
1558057741193,0.9860000014305115,9.567000389099121,-0.6890000104904175,136.35463175971128
1558057741219,,,,135.8746060648428
1558057741272,,9.625,,
1558057741273,0.9760000109672546,,-0.8809999823570251,130.8171105316368
1558057741327,0.9959999918937683,9.54800033569336,-0.6990000009536743,136.3969106306737
1558057741333,,,,136.11564344065255
1558057741384,0.9570000171661377,9.625,-0.765999972820282,133.13093273562703
1558057741402,,,,133.67251209529567
1558057741453,0.9959999918937683,9.595999717712402,-0.6890000104904175,136.8692728532934
1558057741478,,,,137.7738631069699
1558057741528,0.9570000171661377,9.625,-0.6700000166893005,137.15674185508092
1558057741553,,,,136.81303307566753
1558057741582,0.9860000014305115,9.604999542236328,-0.5170000195503235,142.44769325411792
1558057741605,,,,142.46521951952818
1558057741655,1.034000039100647,9.54800033569336,-0.5929999947547913,141.28597369894715
1558057741663,,,,142.04415201757524
1558057741714,0.9480000138282776,9.625,-0.6700000166893005,137.32678624465754
1558057741731,,,,137.7607218230068
1558057741780,,9.595999717712402,,
1558057741801,0.8899999856948853,,-0.7369999885559082,134.1245613353238
1558057741849,0.9670000076293945,9.510000228881836,-0.7179999947547913,136.72389910699886
1558057741874,,,,137.05883792351796
1558057741924,0.9860000014305115,9.595999717712402,-0.6029999852180481,140.8229278543553
1558057741927,,,,140.52834179545263
1558057741978,1.0049999952316284,9.54800033569336,-0.7179999947547913,137.80821895849508
1558057742000,,,,137.8545139806894
1558057742053,1.0529999732971191,9.567000389099121,-0.6510000228881836,140.9450106555801
1558057742059,,,,141.96197118148163
1558057742129,0.9860000014305115,9.652999877929688,-0.4690000116825104,146.0242125299684
1558057742179,0.9959999918937683,9.57699966430664,-0.4690000116825104,146.2873250771756
1558057742205,,,,145.8028597593466
1558057742258,0.9190000295639038,9.604999542236328,-0.5550000071525574,140.7506098114232
1558057742310,,9.538000106811523,,
1558057742311,0.9860000014305115,,-0.5839999914169312,141.2569863761096
1558057742337,,,,141.50014111056205
1558057742374,0.9959999918937683,9.57699966430664,-0.5839999914169312,141.7332554669346
1558057742389,,,,141.80523200040818
1558057742442,0.9480000138282776,9.604999542236328,-0.6320000290870667,138.97122258922982
1558057742469,,,,139.38877937394938
1558057742521,,9.567000389099121,-0.5740000009536743,
1558057742522,1.0049999952316284,,,142.78286429706878
1558057742573,1.0820000171661377,9.625,-0.5170000195503235,146.96605463537813
1558057742598,,,,146.51944222592934
1558057742647,0.9570000171661377,9.595999717712402,-0.4779999852180481,144.9386359236649
1558057742653,,,,145.36074161437168
1558057742704,0.9760000109672546,9.567000389099121,-0.45899999141693115,146.5511752848132
1558057742722,,,,146.6850606529238
1558057742776,0.9760000109672546,9.614999771118164,-0.5360000133514404,143.91686694458767
1558057742802,,,,144.70227039724745
1558057742853,0.9480000138282776,9.614999771118164,-0.5740000009536743,142.6764772705567
1558057742904,0.9380000233650208,9.633999824523926,-0.5550000071525574,142.66901870398303
1558057742930,,,,142.89277570119265
1558057742975,0.8809999823570251,9.614999771118164,-0.5929999947547913,139.94404643271474
1558057742983,,,,140.28368441938278
1558057743034,1.0049999952316284,9.595999717712402,-0.37299999594688416,151.55366047444392
1558057743051,,,,152.00158428021334
1558057743103,1.062999963760376,9.567000389099121,-0.4020000100135803,152.05750986913742
1558057743124,,,,152.74668961677003
1558057743175,1.034000039100647,9.644000053405762,-0.4779999852180481,149.4193629625983
1558057743200,,,,148.8176232967202
1558057743232,0.9760000109672546,9.663000106811523,-0.29600000381469727,154.62533314798205
1558057743251,,,,154.23349885567674
1558057743302,0.9380000233650208,9.652999877929688,-0.6990000009536743,138.96877738150695
1558057743313,,,,138.51045802782076
1558057743364,,9.595999717712402,,
1558057743365,1.0149999856948853,,-0.621999979019165,142.92500053369676
1558057743381,,,,143.32065973193727
1558057743430,,9.442999839782715,-0.621999979019165,145.31756115843888
1558057743431,1.090999960899353,,,
1558057743454,,,,144.35943588204782
1558057743505,,9.614999771118164,,
1558057743506,0.9380000233650208,,-0.7850000262260437,135.72725156368895
1558057743511,,,,135.65784318134328
1558057743562,0.8610000014305115,9.633999824523926,-0.8230000138282776,132.26491939038277
1558057743583,,,,130.58227496759343
1558057743636,0.8230000138282776,9.633999824523926,-0.8809999823570251,128.01016232995005
1558057743643,,,,127.25486635115169
1558057743694,0.9670000076293945,9.519000053405762,-0.7749999761581421,134.5108768347797
1558057743717,,,,134.72791292584603
1558057743770,,9.557000160217285,,
1558057743771,0.9480000138282776,,-0.6990000009536743,136.09321309941822
1558057743797,,,,135.85131511977306
1558057743826,0.9480000138282776,9.614999771118164,-0.746999979019165,134.5119696650469
1558057743848,1.0049999952316284,9.57699966430664,-0.7369999885559082,134.58751155726725
1558057743874,0.9480000138282776,9.644000053405762,-0.7749999761581421,133.8493183721506
1558057743899,,9.595999717712402,-0.6029999852180481,
1558057743900,0.9480000138282776,,,138.73860000647753
1558057743907,1.0820000171661377,9.595999717712402,-0.6029999852180481,142.2605460708596
1558057743908,,,,142.3937894011882
1558057743951,1.1009999513626099,9.567000389099121,-0.7850000262260437,138.10966252732442
1558057743977,,9.625,,
1558057743978,1.0149999856948853,,-0.8230000138282776,134.85115685922975
1558057743986,,9.633999824523926,,
1558057743987,0.9860000014305115,,-0.8140000104904175,134.0796460113418
1558057744006,,9.614999771118164,-0.7369999885559082,134.85117051960808
1558057744007,0.9480000138282776,,,
1558057744033,0.9570000171661377,9.57699966430664,-0.7179999947547913,135.6629385024641
1558057744039,,,,134.64536325953728
1558057744060,0.8899999856948853,9.595999717712402,-0.7749999761581421,131.02051356511978
1558057744066,0.8899999856948853,9.57699966430664,-0.9279999732971191,127.66922660733968
1558057744087,0.9190000295639038,9.480999946594238,-0.8330000042915344,130.7123354297688
1558057744114,0.9380000233650208,9.510000228881836,-0.8040000200271606,130.96572178759794
1558057744139,,9.557000160217285,,
1558057744140,0.9480000138282776,,-0.7850000262260437,132.9257811737165
1558057744146,0.9480000138282776,9.557000160217285,-0.8330000042915344,131.79589030007799
1558057744171,0.9760000109672546,9.57699966430664,-0.8330000042915344,132.6282717938491
1558057744193,1.0149999856948853,9.614999771118164,-0.8040000200271606,134.4151449033728
1558057744220,0.9380000233650208,9.567000389099121,-0.9480000138282776,129.1156694282516
1558057744226,1.0149999856948853,9.567000389099121,-0.9959999918937683,130.56081451322126
1558057744246,1.0429999828338623,9.595999717712402,-0.6990000009536743,130.19330935473954
1558057744272,1.0149999856948853,9.633999824523926,-0.7850000262260437,134.4853046065272
1558057744298,1.0429999828338623,9.557000160217285,-0.746999979019165,136.28240933942757
1558057744303,,,,136.1867866910474
1558057744324,1.1100000143051147,9.567000389099121,-0.8230000138282776,136.1639192177062
1558057744327,1.0049999952316284,9.529000282287598,-0.9190000295639038,131.30520951010428
1558057744350,1.0429999828338623,9.54800033569336,-0.8999999761581421,132.74964425540023
1558057744377,1.0820000171661377,9.529000282287598,-0.9190000295639038,133.46924566559608
1558057744403,0.9670000076293945,9.57699966430664,-0.8899999856948853,130.63378825431369
1558057744407,0.9570000171661377,9.538000106811523,-0.8809999823570251,130.55810975830994
1558057744454,0.9480000138282776,9.595999717712402,-0.8809999823570251,130.2104258087996
1558057744479,1.034000039100647,9.538000106811523,-0.8040000200271606,133.99085355213163
1558057744486,0.9860000014305115,9.567000389099121,-0.7369999885559082,134.21512964371817
1558057744506,,,,134.9537053194283
1558057744507,0.9089999794960022,9.557000160217285,-0.9279999732971191,128.2998306526503
1558057744531,0.9380000233650208,9.595999717712402,-0.8999999761581421,129.72600147210562
1558057744556,0.9670000076293945,9.567000389099121,-0.8610000014305115,131.46711231419025
1558057744581,0.9860000014305115,9.614999771118164,-0.746999979019165,134.64860076920385
1558057744587,0.9570000171661377,9.57699966430664,-0.7850000262260437,133.26240021677143
1558057744607,0.9860000014305115,9.489999771118164,-0.9279999732971191,131.19503855879196
1558057744634,1.0049999952316284,9.57699966430664,-0.7749999761581421,134.9257835061013
1558057744660,0.9670000076293945,9.567000389099121,-0.8330000042915344,132.60764462255565
1558057744666,1.062999963760376,9.625,-0.8140000104904175,135.72135028024604
1558057744686,,9.567000389099121,-0.7850000262260437,
1558057744687,1.090999960899353,,,137.18923989515184
1558057744712,1.034000039100647,9.54800033569336,-0.8519999980926514,137.55328897791352
1558057744738,,9.567000389099121,-0.7749999761581421,
1558057744739,0.9860000014305115,,,134.89320350376033
1558057744765,1.0240000486373901,9.57699966430664,-0.746999979019165,136.65409457368133
1558057744768,1.062999963760376,9.54800033569336,-0.8230000138282776,136.40577621621634
1558057744792,1.0429999828338623,9.557000160217285,-0.765999972820282,136.48950067506237
1558057744807,0.9670000076293945,9.557000160217285,-0.746999979019165,134.78064198623855
1558057744842,0.9570000171661377,9.567000389099121,-0.6890000104904175,135.99708501703947
1558057744849,0.9480000138282776,9.633999824523926,-0.6990000009536743,136.55232475504815
1558057744867,0.9760000109672546,9.595999717712402,-0.8040000200271606,134.7922669682059
1558057744890,0.9670000076293945,9.567000389099121,-0.746999979019165,135.92990327636323
1558057744897,,,,135.88944123572006
1558057744913,1.0240000486373901,9.595999717712402,-0.7369999885559082,137.74432936899876
1558057744936,1.0240000486373901,9.57699966430664,-0.746999979019165,137.51070957862765
1558057744946,,9.614999771118164,-0.7080000042915344,
1558057744947,0.9480000138282776,,,136.30150654834694
1558057744963,,,,136.2351854115061
1558057744984,0.9860000014305115,9.557000160217285,-0.6990000009536743,137.64947170180562
1558057744986,,9.567000389099121,,
1558057744987,1.0820000171661377,,-0.765999972820282,138.522520141895
1558057745008,1.0529999732971191,9.595999717712402,-0.7179999947547913,138.9417298323937
1558057745032,1.0429999828338623,9.567000389099121,-0.6700000166893005,139.9959148892718
1558057745056,0.9959999918937683,9.633999824523926,-0.6510000228881836,139.52098451552413
1558057745079,,9.595999717712402,,
1558057745103,1.062999963760376,9.595999717712402,-0.6510000228881836,141.31512494632474
1558057745128,1.034000039100647,9.595999717712402,-0.6890000104904175,139.7906950254696
1558057745152,,9.595999717712402,,
1558057745153,1.0149999856948853,,-0.7749999761581421,137.0396450919502
1558057745177,,9.595999717712402,-0.6990000009536743,137.3861132677883
1558057745178,1.034000039100647,,,
1558057745202,,9.557000160217285,,
1558057745203,1.034000039100647,,-0.6029999852180481,142.61387175662435
1558057745206,0.9760000109672546,9.595999717712402,-0.5070000290870667,144.2269438725279
1558057745227,1.0240000486373901,9.54800033569336,-0.6990000009536743,139.6251722211235
1558057745228,,,,139.7376517763753
1558057745250,1.0820000171661377,9.557000160217285,-0.7080000042915344,140.99973413121026
1558057745273,1.1009999513626099,9.510000228881836,-0.5740000009536743,145.2312275673299
1558057745296,1.034000039100647,9.538000106811523,-0.8140000104904175,137.16295732722563
1558057745306,1.0529999732971191,9.644000053405762,-0.8040000200271606,137.8258408465537
1558057745344,1.034000039100647,9.652999877929688,-0.6600000262260437,141.0306065862587
1558057745346,,9.614999771118164,-0.746999979019165,
1558057745347,0.9760000109672546,,,137.10143098318215
1558057745369,1.034000039100647,9.652999877929688,-0.8519999980926514,136.39793515904918
1558057745393,,9.510000228881836,-0.7179999947547913,138.36630005519848
1558057745394,1.0149999856948853,,,
1558057745418,1.0429999828338623,9.54800033569336,-0.7749999761581421,137.64056513512793
1558057745442,0.9760000109672546,9.54800033569336,-0.7749999761581421,138.2783272186887
1558057745446,0.8899999856948853,9.567000389099121,-0.746999979019165,134.4412089052456
1558057745467,0.9670000076293945,9.57699966430664,-0.7749999761581421,136.10203770382589
1558057745491,0.9570000171661377,9.557000160217285,-0.8230000138282776,134.66828537439181
1558057745515,0.9190000295639038,9.510000228881836,-0.7850000262260437,135.39195757733302
1558057745526,0.9089999794960022,9.538000106811523,-0.7850000262260437,135.04884985456658
1558057745563,,9.567000389099121,-0.7369999885559082,
1558057745564,0.9380000233650208,,,137.14243943895892
1558057745568,0.9570000171661377,9.595999717712402,-0.7179999947547913,137.87903435980976
1558057745589,0.9570000171661377,9.595999717712402,-0.765999972820282,136.62604981694926
1558057745614,0.9380000233650208,9.567000389099121,-0.7369999885559082,136.8297123976207
1558057745623,,,,136.97661610628933
1558057745640,0.9760000109672546,9.614999771118164,-0.765999972820282,137.31174616810517
1558057745646,0.9570000171661377,9.595999717712402,-0.8040000200271606,135.83675315646258
1558057745667,0.9860000014305115,9.604999542236328,-0.8230000138282776,136.23715250598707
1558057745689,1.0049999952316284,9.567000389099121,-0.746999979019165,138.66595411446528
1558057745714,1.034000039100647,9.567000389099121,-0.7179999947547913,139.51972776071688
1558057745737,0.9670000076293945,9.57699966430664,-0.7850000262260437,135.9029650102767
1558057745760,1.034000039100647,9.595999717712402,-0.8040000200271606,137.33658073592736
1558057745784,0.9760000109672546,9.567000389099121,-0.7850000262260437,135.89181814155123
1558057745787,0.9570000171661377,9.567000389099121,-0.7179999947547913,137.0700121130001
1558057745809,,9.567000389099121,-0.6990000009536743,
1558057745810,1.0049999952316284,,,138.9642557962764
1558057745834,1.0240000486373901,9.557000160217285,-0.7179999947547913,139.021970894763
1558057745860,1.0429999828338623,9.57699966430664,-0.8230000138282776,136.93847632996398
1558057745866,1.0240000486373901,9.54800033569336,-0.746999979019165,138.28961069119757
1558057745888,0.9860000014305115,9.567000389099121,-0.7749999761581421,136.49388565650952
1558057745913,,9.614999771118164,-0.7850000262260437,136.94999202890463
1558057745914,1.0149999856948853,,,
1558057745937,1.0149999856948853,9.604999542236328,-0.8230000138282776,136.06142539902098
1558057745960,0.9860000014305115,9.567000389099121,-0.7749999761581421,136.41577561316126
1558057745966,0.9760000109672546,9.538000106811523,-0.765999972820282,136.3924573473348
1558057746003,0.9480000138282776,9.595999717712402,-0.765999972820282,135.5007215096763
1558057746006,0.9480000138282776,9.644000053405762,-0.7080000042915344,136.98522214464356
1558057746023,,,,136.89431232679067
1558057746028,1.0149999856948853,9.567000389099121,-0.6990000009536743,139.12819399673506
1558057746064,0.9860000014305115,9.57699966430664,-0.7850000262260437,136.09762540162205
1558057746066,,9.538000106811523,-0.8230000138282776,135.53548717255165
1558057746067,0.9959999918937683,,,
1558057746086,,9.567000389099121,,136.09550804297936
1558057746087,1.034000039100647,,-0.7749999761581421,
1558057746107,1.034000039100647,9.57699966430664,-0.8809999823570251,135.87942817839684
1558057746128,1.034000039100647,9.54800033569336,-0.7080000042915344,139.94494801768516
1558057746151,1.0240000486373901,9.604999542236328,-0.6990000009536743,139.86134650224423
1558057746152,,,,139.9366698284111
1558057746173,1.0529999732971191,9.595999717712402,-0.7179999947547913,140.2183604901608
1558057746186,,9.625,-0.6890000104904175,
1558057746187,1.0820000171661377,,,141.68368195393865
1558057746216,1.0149999856948853,9.595999717712402,-0.8140000104904175,136.86346719249892
1558057746217,,,,136.61755306162178
1558057746239,1.0049999952316284,9.510000228881836,-0.8519999980926514,135.6013984980423
1558057746246,1.062999963760376,9.567000389099121,-0.6890000104904175,140.98118333742448
1558057746266,1.0049999952316284,9.595999717712402,-0.8140000104904175,136.33393628652615
1558057746283,,,,135.42169622097924
1558057746303,,9.604999542236328,-0.6320000290870667,
1558057746304,1.0049999952316284,,,140.0870705939348
1558057746307,1.0049999952316284,9.625,-0.8040000200271606,135.61657517837807
1558057746327,1.034000039100647,9.604999542236328,-0.6990000009536743,139.02063217768568
1558057746349,1.090999960899353,9.54800033569336,-0.8610000014305115,136.8226499820189
1558057746369,1.0529999732971191,9.529000282287598,-0.7369999885559082,137.62880354937718
1558057746391,1.0529999732971191,9.489999771118164,-0.6990000009536743,138.63010928170104
1558057746419,1.0429999828338623,9.57699966430664,-0.7850000262260437,136.15652895302424
1558057746434,1.0429999828338623,9.54800033569336,-0.8610000014305115,134.2231209650471
1558057746456,0.9860000014305115,9.529000282287598,-0.7080000042915344,136.1812542378197
1558057746467,0.9860000014305115,9.567000389099121,-0.6990000009536743,136.3787969689948
1558057746481,,,,136.32563077649542
1558057746486,,9.57699966430664,-0.6890000104904175,
1558057746487,0.9570000171661377,,,135.73058469600392
1558057746521,0.9480000138282776,9.625,-0.765999972820282,133.42565539831307
1558057746527,0.9380000233650208,9.663000106811523,-0.7179999947547913,134.28747500740693
1558057746548,0.9190000295639038,9.595999717712402,-0.746999979019165,133.0167319727044
1558057746587,0.9190000295639038,9.567000389099121,-0.7850000262260437,132.08876881168814
1558057746613,0.9570000171661377,9.57699966430664,-0.8899999856948853,130.98496926067904
1558057746614,,,,129.95529092254296
1558057746626,,9.538000106811523,,
1558057746627,1.0529999732971191,,-0.8330000042915344,134.01724540308456
1558057746653,1.034000039100647,9.54800033569336,-0.8230000138282776,133.69454628555812
1558057746670,1.0049999952316284,9.567000389099121,-0.7850000262260437,133.7141625888544
1558057746692,0.9570000171661377,9.567000389099121,-0.8230000138282776,133.3057036161093
1558057746706,1.0049999952316284,9.54800033569336,-0.8040000200271606,132.88003256665576
1558057746731,1.0049999952316284,9.557000160217285,-0.8230000138282776,132.43559215736303
1558057746753,1.0149999856948853,9.595999717712402,-0.7850000262260437,132.856700640451
1558057746766,0.9670000076293945,9.604999542236328,-0.7080000042915344,134.52893585494522
1558057746798,0.9670000076293945,9.538000106811523,-0.7080000042915344,134.59685525605184
1558057746821,0.9760000109672546,9.57699966430664,-0.6890000104904175,135.3424660266071
1558057746826,1.0049999952316284,9.595999717712402,-0.6990000009536743,136.4856621087488
1558057746846,,9.519000053405762,,
1558057746847,0.9760000109672546,,-0.7369999885559082,134.7229132273736
1558057746867,,9.567000389099121,,
1558057746868,0.9570000171661377,,-0.7850000262260437,132.9014383795146
1558057746877,,,,133.82686071015962
1558057746891,0.9860000014305115,9.625,-0.621999979019165,139.0520373874894
1558057746915,0.9760000109672546,9.625,-0.746999979019165,135.2818822486691
1558057746938,1.0049999952316284,9.604999542236328,-0.746999979019165,136.1416664613903
1558057746960,0.9190000295639038,9.567000389099121,-0.7850000262260437,136.6358852893541
1558057746966,0.9760000109672546,9.595999717712402,-0.6990000009536743,137.08297581204477
1558057746986,0.9190000295639038,9.567000389099121,-0.7179999947547913,134.87235776641347
1558057747026,0.9480000138282776,9.604999542236328,-0.8140000104904175,133.31496535262383
1558057747048,0.9959999918937683,9.595999717712402,-0.7369999885559082,136.9289277255043
1558057747075,1.0529999732971191,9.557000160217285,-0.8519999980926514,135.82974538237414
1558057747091,,9.57699966430664,,
1558057747092,1.034000039100647,,-0.7850000262260437,136.3414221738565
1558057747115,1.0049999952316284,9.595999717712402,-0.746999979019165,136.44862882306901
1558057747126,1.062999963760376,9.57699966430664,-0.6029999852180481,141.986491560602
1558057747142,,,,142.3711404939004
1558057747163,0.9760000109672546,9.633999824523926,-0.6600000262260437,138.34820005389793
1558057747167,1.0529999732971191,9.54800033569336,-0.8899999856948853,134.96952403754608
1558057747187,1.0240000486373901,9.529000282287598,-0.5170000195503235,144.16985715144494
1558057747210,0.9860000014305115,9.538000106811523,-0.7080000042915344,137.3818512297462
1558057747233,,9.57699966430664,,
1558057747234,1.0429999828338623,,-0.8519999980926514,136.03060758548588
1558057747280,,,,135.73301624334843
1558057748015,1.0149999856948853,9.633999824523926,-0.8140000104904175,135.72736084671567
1558057748016,1.0149999856948853,9.633999824523926,-0.8140000104904175,135.72736084671567
1558057748018,0.8899999856948853,9.595999717712402,-0.7369999885559082,132.9867611026264
1558057748075,,,,132.95633944006315
1558057748084,1.034000039100647,9.57699966430664,-0.6600000262260437,139.32840050168647
1558057748131,,,,139.96281579255393
1558057748166,,9.625,,
1558057748167,0.9760000109672546,,-0.5929999947547913,140.34306608402687
1558057748212,,,,141.24197362031393
1558057748235,0.9860000014305115,9.510000228881836,-0.7179999947547913,138.05482976866756
1558057748281,,,,138.02830131393122
1558057748286,,9.652999877929688,-0.5839999914169312,145.2488084742535
1558057748287,1.1299999952316284,,,
1558057748329,,,,145.46994267882187
1558057748349,1.090999960899353,9.595999717712402,-0.4880000054836273,147.58448728358775
1558057748395,,,,148.36159888659512
1558057748417,1.062999963760376,9.567000389099121,-0.6990000009536743,141.5938376455963
1558057748464,,,,141.9320686132953
1558057748488,,9.595999717712402,,
1558057748489,0.8709999918937683,,-0.765999972820282,134.58524393446282
1558057748534,,,,134.2176704740894
1558057748557,0.8709999918937683,9.557000160217285,-0.7080000042915344,135.7672764722252
1558057748603,,,,136.03693234065733
1558057748626,0.9190000295639038,9.625,-0.5450000166893005,142.479836124352
1558057748673,,,,142.13343625040565
1558057748678,0.9380000233650208,9.595999717712402,-0.6890000104904175,138.29603106901737
1558057748725,,,,137.40321606147
1558057748744,0.9570000171661377,9.644000053405762,-0.5929999947547913,140.75390196260315
1558057748791,,,,140.25753845523997
1558057748811,,9.519000053405762,,
1558057748812,0.8809999823570251,,,130.9902421667183
1558057748858,,,,130.5729449291872
1558057748881,0.9190000295639038,9.567000389099121,-0.6320000290870667,137.66750340121447
1558057748927,,,,137.94530085513722
1558057748951,0.9760000109672546,9.567000389099121,-0.6600000262260437,138.78866529309371
1558057748997,,,,138.69880732437304
1558057749010,0.9190000295639038,9.519000053405762,-0.5929999947547913,139.1266093928476
1558057749067,,,,139.14847965856998
1558057749074,0.9480000138282776,9.692000389099121,-0.5070000290870667,142.76529705052351
1558057749121,,,,143.04051269294
1558057749160,1.034000039100647,9.625,-0.2770000100135803,153.8190156560837
1558057749210,1.1490000486373901,9.595999717712402,-0.4300000071525574,154.167300662241
1558057749259,,,,150.84031551752778
1558057749282,,9.633999824523926,,
1558057749283,1.253999948501587,,-0.4020000100135803,153.40703230572686
1558057749323,,,,153.56964544948653
1558057749345,,9.652999877929688,-0.3540000021457672,
1558057749346,1.034000039100647,,,151.5662553432734
1558057749390,,,,151.97192759883714
1558057749404,0.8809999823570251,9.633999824523926,-0.5170000195503235,142.14343564735054
1558057749460,,,,142.03474001689895
1558057749483,1.0149999856948853,9.567000389099121,-0.4779999852180481,146.99821116599054
1558057749530,,,,147.33596402044768
1558057749552,0.9670000076293945,9.595999717712402,-0.5740000009536743,142.89744755058493
1558057749598,,,,142.53544752457427
1558057749604,,9.54800033569336,-0.5839999914169312,
1558057749605,0.8420000076293945,,,138.49708451742586
1558057749649,,,,137.53177388202798
1558057749668,,9.510000228881836,-0.7179999947547913,
1558057749669,0.49799999594688416,,,118.30735951957001
1558057749717,,,,118.13335362027476
1558057749736,1.1200000047683716,9.470999717712402,-0.9190000295639038,137.01588969401692
1558057749782,,,,136.5039123742111
1558057749805,1.090999960899353,9.682000160217285,-0.29600000381469727,153.4931883119174
1558057749852,,,,153.88074690580228
1558057749876,,9.663000106811523,,
1558057749877,0.8809999823570251,,-0.746999979019165,133.68107715251486
1558057749922,,,,134.00720502500462
1558057749932,0.8899999856948853,9.595999717712402,0.04699999839067459,168.1486022706087
1558057749979,,,,168.8212939415849
1558057749998,1.0429999828338623,9.682000160217285,-0.1809999942779541,158.8834096803514
1558057750045,,,,159.54856082248392
1558057750066,,9.682000160217285,,
1558057750067,1.1679999828338623,,-0.0860000029206276,164.38202615091348
1558057750118,,,,164.84402014637314
1558057750142,1.3209999799728394,9.633999824523926,-0.06700000166893005,166.26351104082022
1558057750189,,,,167.1672133699046
1558057750196,1.378999948501587,9.538000106811523,-0.1340000033378601,165.3685376934951
1558057750245,,,,166.07277117805845
1558057750264,,9.57699966430664,-0.2290000021457672,
1558057750265,0.8709999918937683,,,157.1907795209955
1558057750312,,,,158.4944713882542
1558057750329,,9.57699966430664,-0.1720000058412552,
1558057750330,0.9959999918937683,,,162.9082352525648
1558057750376,,,,163.14458711860394
1558057750400,1.0149999856948853,9.604999542236328,-0.02800000086426735,169.69815362723116
1558057750448,,,,169.60731211127
1558057750471,0.8230000138282776,9.767999649047852,0.28700000047683716,186.34581446587583
1558057750518,,,,186.25426261024097
1558057750526,1.0049999952316284,9.595999717712402,-0.0860000029206276,166.91845788033274
1558057750573,,,,167.40024576400708
1558057750592,,9.567000389099121,,
1558057750593,1.0149999856948853,,0.20999999344348907,180.6159551107737
1558057750639,,,,182.05854570499378
1558057750662,0.9480000138282776,9.625,0.04699999839067459,174.95604691068533
1558057750709,,,,174.9089732469256
1558057750733,1.0429999828338623,9.644000053405762,-0.257999986410141,161.83284928850298
1558057750779,,,,162.09430892993106
1558057750803,1.1200000047683716,9.652999877929688,-0.06700000166893005,170.48441768372635
1558057750849,,,,171.15592090178697
1558057750856,1.090999960899353,9.682000160217285,-0.12399999797344208,168.69774947987773
1558057750903,,,,169.22238997040475
1558057750922,1.0240000486373901,9.625,0.0,174.24569357662565
1558057750969,,,,174.94021453218923
1558057750992,1.1299999952316284,9.567000389099121,-0.0860000029206276,171.6640459949009
1558057751039,,,,171.66713324040575
1558057751062,1.062999963760376,9.644000053405762,-0.20100000500679016,166.53901355118185
1558057751109,,,,166.47455022579527
1558057751133,1.1200000047683716,9.604999542236328,-0.20999999344348907,166.70239167612854
1558057751180,,,,166.32759187561328
1558057751186,0.9760000109672546,9.604999542236328,-0.24899999797344208,163.02011375116962
1558057751237,,,,163.23937648390537
1558057751252,1.0429999828338623,9.644000053405762,-0.12399999797344208,169.33788846926967
1558057751299,,,,169.46995700706103
1558057751321,1.1009999513626099,9.54800033569336,0.02800000086426735,176.00443996714725
1558057751380,,,,174.55634424045618
1558057751404,1.2059999704360962,9.57699966430664,-0.0949999988079071,170.1184698083754
1558057751450,,,,169.94412239962165
1558057751451,1.1770000457763672,9.644000053405762,0.11400000005960464,177.57754181602792
1558057751498,,,,177.29949847529502
1558057751522,1.225000023841858,9.595999717712402,-0.0949999988079071,169.78810721860023
1558057751570,,,,169.6757096256185
1558057751582,,9.633999824523926,-0.16200000047683716,166.6120009526526
1558057751583,1.1299999952316284,,,
1558057751629,,,,167.01000973596757
1558057751664,1.062999963760376,9.652999877929688,-0.06700000166893005,170.38707382767532
1558057751695,,,,169.56014282486188
1558057751718,0.9860000014305115,9.595999717712402,-0.1340000033378601,166.12353314396998
1558057751761,,,,166.48420811328165
1558057751783,0.9190000295639038,9.614999771118164,-0.1720000058412552,163.9951369155673
1558057751832,,,,163.66109968401864
1558057751854,,9.663000106811523,-0.1340000033378601,
1558057751855,0.9380000233650208,,,165.69176956577678
1558057751900,,,,166.3170870446698
1558057751912,0.7179999947547913,9.595999717712402,-0.04699999839067459,169.41009722917505
1558057751959,,,,170.19817811598946
1558057751995,,9.644000053405762,,
1558057751996,0.7269999980926514,,0.11400000005960464,180.92672871800937
1558057752045,0.7179999947547913,9.567000389099121,0.16200000047683716,181.92905897870867
1558057752098,,,,185.63286565993155
1558057752123,0.7749999761581421,9.644000053405762,0.20100000500679016,187.0997170860835
1558057752174,,,,186.46121734209237
1558057752176,0.7940000295639038,9.652999877929688,-0.06700000166893005,170.1581668678315
1558057752225,,,,171.03714391212046
1558057752251,0.7940000295639038,9.633999824523926,0.0,175.09229552424873
1558057752290,,,,175.08718654274955
1558057752327,0.7749999761581421,9.604999542236328,0.0,175.07114925857837
1558057752376,0.8330000042915344,9.652999877929688,0.0949999988079071,175.67362658488685
1558057752426,,,,181.22694285278806
1558057752450,0.8330000042915344,9.692000389099121,0.1340000033378601,183.43241093578513
1558057752498,,,,183.62440755335422
1558057752506,0.8519999980926514,9.67199993133545,0.01899999938905239,177.03917264526916
1558057752553,,,,176.875534973134
1558057752572,0.8709999918937683,9.644000053405762,0.06700000166893005,179.49347818010818
1558057752620,,,,179.6383328320258
1558057752645,0.8140000104904175,9.595999717712402,0.1720000058412552,185.9491170788815
1558057752694,,,,185.98415594932362
1558057752719,0.8610000014305115,9.682000160217285,0.1720000058412552,185.41297454979212
1558057752769,,,,184.7427417469171
1558057752774,0.8330000042915344,9.682000160217285,0.20100000500679016,186.66091841304512
1558057752818,,,,186.85198612488716
1558057752841,0.8999999761581421,9.701000213623047,0.11400000005960464,181.52417902508864
1558057752887,,,,181.49284211717668
1558057752910,0.8899999856948853,9.567000389099121,0.11400000005960464,181.55869880115392
1558057752958,,,,180.6405574521641
1558057752981,0.8519999980926514,9.567000389099121,-0.01899999938905239,173.48116318206945
1558057753029,,,,173.14666149765725
1558057753034,0.7749999761581421,9.652999877929688,0.06700000166893005,178.32204609593765
1558057753081,,,,177.42066603117107
1558057753101,0.8809999823570251,9.652999877929688,-0.20100000500679016,162.70218210568387
1558057753150,,,,161.95318356130025
1558057753174,0.8330000042915344,9.595999717712402,-0.1340000033378601,164.89098452710616
1558057753221,,,,164.41927800264673
1558057753232,,9.625,,
1558057753233,0.8040000200271606,,-0.28700000047683716,155.62270469134398
1558057753293,,,,155.98762803831943
1558057753317,0.8999999761581421,9.652999877929688,-0.06700000166893005,169.0021027092935
1558057753367,0.8330000042915344,9.682000160217285,-0.2770000100135803,168.83843771640167
1558057753414,,,,156.81442243734946
1558057753438,0.8610000014305115,9.604999542236328,-0.11400000005960464,165.86503780464167
1558057753486,,,,166.66706593774126
1558057753496,0.8140000104904175,9.663000106811523,-0.06700000166893005,168.91202617451938
1558057753543,,,,168.85828624612972
1558057753562,0.8610000014305115,9.652999877929688,-0.12399999797344208,166.06984785709366
1558057753609,,,,166.44505746895916
1558057753629,0.8610000014305115,9.652999877929688,-0.16200000047683716,164.41351332298723
1558057753677,,,,164.96317962663318
1558057753703,0.8709999918937683,9.595999717712402,-0.04699999839067459,171.25351064464812
1558057753751,,,,171.16806497813127
1558057753760,0.8420000076293945,9.652999877929688,-0.06700000166893005,169.8901775655569
1558057753807,,,,169.70408223143073
1558057753826,0.8230000138282776,9.644000053405762,-0.0860000029206276,168.48304931350756
1558057753874,,,,167.9266211225833
1558057753899,0.7749999761581421,9.652999877929688,-0.0949999988079071,166.9485790145725
1558057753947,,,,167.31292862565766
1558057753973,0.8230000138282776,9.682000160217285,-0.06700000166893005,169.37798167969765
1558057754022,,,,169.20618876169348
1558057754024,0.8040000200271606,9.701000213623047,-0.05700000002980232,169.66348358700418
1558057754071,,,,169.5053373869617
1558057754095,0.8899999856948853,9.614999771118164,-0.11400000005960464,167.03211222812175
1558057754144,,,,167.02838294483493
1558057754156,0.8610000014305115,9.614999771118164,-0.11400000005960464,166.75436941571235
1558057754203,,,,166.93321108893997
1558057754244,0.8040000200271606,9.652999877929688,-0.24899999797344208,158.76844393624174
1558057754270,,,,159.30891680526486
1558057754295,0.8040000200271606,9.57699966430664,-0.14300000667572021,165.21022756891256
1558057754348,,,,165.80021930941825
1558057754354,,9.625,,
1558057754355,0.8610000014305115,,-0.2290000021457672,162.00406847061686
1558057754401,,,,161.65255961517133
1558057754423,,9.633999824523926,-0.12399999797344208,166.74508035844113
1558057754424,0.8230000138282776,,,
1558057754477,,,,166.55089808033767
1558057754486,0.8519999980926514,9.652999877929688,0.0,173.72806086018707
1558057754533,,,,173.85812132236245
1558057754553,0.7749999761581421,9.633999824523926,-0.1809999942779541,162.67594051889267
1558057754601,,,,163.03156114821854
1558057754625,,9.633999824523926,,
1558057754626,0.8330000042915344,,-0.16200000047683716,164.9972076290782
1558057754672,,,,164.4931943098446
1558057754695,0.8140000104904175,9.663000106811523,-0.0860000029206276,168.5983838878324
1558057754742,,,,168.7386213318711
1558057754750,0.8519999980926514,9.614999771118164,-0.0949999988079071,168.5527582241767
1558057754797,,,,168.57725128254037
1558057754816,0.8040000200271606,9.644000053405762,0.0,173.83418833951072
1558057754863,,,,173.72405836933345
1558057754884,0.8140000104904175,9.625,-0.0949999988079071,168.16050046014288
1558057754932,,,,169.06103358145236
1558057754956,0.8330000042915344,9.652999877929688,-0.16200000047683716,165.48568909813915
1558057755003,,,,165.1252600156376
1558057755028,0.8420000076293945,9.625,0.0949999988079071,179.69014664706953
1558057755062,,,,179.70007774212274
1558057755080,,9.652999877929688,,
1558057755081,0.8519999980926514,,0.0860000029206276,179.14330804173997
1558057755128,,,,178.8054732250128
1558057755152,0.8230000138282776,9.663000106811523,-0.02800000086426735,172.36405842255718
1558057755202,,,,173.7901199589858
1558057755226,,9.57699966430664,,
1558057755227,0.8899999856948853,,0.0,175.47915743883826
1558057755275,,,,174.923412266831
1558057755286,0.8140000104904175,9.633999824523926,-0.11400000005960464,168.20936363346513
1558057755326,,,,167.8080900197269
1558057755349,,9.633999824523926,0.2290000021457672,
1558057755350,0.8899999856948853,,,186.28207514054122
1558057755399,,,,185.92075813344752
1558057755410,0.8899999856948853,9.682000160217285,0.20100000500679016,184.54446135531168
1558057755457,,,,184.5512369029683
1558057755477,,9.633999824523926,,
1558057755528,,,,174.02154042844418
1558057755554,0.8330000042915344,9.604999542236328,-0.01899999938905239,172.8819780069409
1558057755607,,,,173.33032528443889
1558057755608,,9.644000053405762,0.0860000029206276,
1558057755609,0.8519999980926514,,,179.22542057594188
1558057755657,,,,179.363144510366
1558057755682,0.8709999918937683,9.67199993133545,0.06700000166893005,178.23653212752907
1558057755731,,,,177.97953942981817
1558057755740,0.8809999823570251,9.652999877929688,0.0860000029206276,178.9515436506027
1558057755787,,,,179.8888641707819
1558057755807,0.9190000295639038,9.604999542236328,0.257999986410141,188.08016342068208
1558057755856,,,,188.458364655404
1558057755880,0.8140000104904175,9.625,0.0860000029206276,180.64726469792913
1558057755930,,,,181.76473828765654
1558057755955,0.9190000295639038,9.652999877929688,0.2290000021457672,188.20656290146235
1558057755985,,,,188.93371850088033
1558057756006,0.8420000076293945,9.652999877929688,0.1340000033378601,184.98996727411486
1558057756054,,,,185.8357632594159
1558057756078,0.8709999918937683,9.652999877929688,0.2290000021457672,190.43916049584277
1558057756124,,,,190.0774063566422
1558057756147,0.8330000042915344,9.652999877929688,0.0949999988079071,183.38778247974835
1558057756196,,,,183.23854284638355
1558057756220,0.8709999918937683,9.652999877929688,0.1809999942779541,187.5068236813729
1558057756268,,9.625,,187.52182277679026
1558057756269,0.8330000042915344,,0.20999999344348907,
1558057756318,,,,190.0811629606858
1558057756342,0.8809999823570251,9.595999717712402,0.1340000033378601,185.48842081936414
1558057756391,,,,185.13125656728585
1558057756400,0.8610000014305115,9.701000213623047,0.28700000047683716,193.17172793746818
1558057756448,,,,192.95756052585318
1558057756485,0.8420000076293945,9.595999717712402,0.20100000500679016,188.89747751714413
1558057756534,0.8519999980926514,9.614999771118164,0.28700000047683716,189.4216945359426
1558057756584,,,,193.5456398133913
1558057756609,0.8519999980926514,9.614999771118164,0.20100000500679016,189.17818463165338
1558057756658,,,,189.91764823195558
1558057756683,0.7749999761581421,9.652999877929688,0.20999999344348907,191.65240699811216
1558057756711,,,,192.01768551492444
1558057756733,0.8330000042915344,9.586000442504883,0.1809999942779541,189.47211499239575
1558057756783,,,,189.32385890627143
1558057756809,0.8140000104904175,9.682000160217285,0.24899999797344208,193.31465647603977
1558057756862,,,,192.61381076530483
1558057756863,0.8709999918937683,9.595999717712402,0.4779999852180481,201.87270592114737
1558057756915,,,,202.59498476549788
1558057756941,0.8330000042915344,9.682000160217285,0.20999999344348907,190.9300052103565
1558057756975,,,,190.46924064894756
1558057756994,,9.67199993133545,0.37299999594688416,
1558057756995,0.8709999918937683,,,197.7754257022184
1558057757047,,,,196.5541605578635
1558057757060,0.8330000042915344,9.644000053405762,0.20100000500679016,188.74446761935758
1558057757107,,,,189.04587020705185
1558057757147,0.8040000200271606,9.652999877929688,0.24899999797344208,192.12998748525774
1558057757176,,,,191.27805799008206
1558057757199,0.7749999761581421,9.614999771118164,0.2290000021457672,190.71214949658986
1558057757249,,,,190.5210954451262
1558057757258,0.7940000295639038,9.652999877929688,0.1340000033378601,184.7217457454085
1558057757307,,,,184.38478519289515
1558057757324,,9.67199993133545,0.257999986410141,
1558057757325,0.8140000104904175,,,191.05115910585425
1558057757376,,,,190.90082664222223
1558057757390,0.8040000200271606,9.682000160217285,0.3440000116825104,195.53120312587066
1558057757437,,,,195.81818035403796
1558057757456,0.7940000295639038,9.614999771118164,0.1809999942779541,187.26872328690627
1558057757506,,,,187.93252205158308
1558057757533,0.7749999761581421,9.625,0.29600000381469727,194.68469680089595
1558057757583,,,,195.12426045512132
1558057757589,0.8040000200271606,9.614999771118164,0.24899999797344208,191.97887638006046
1558057757635,,,,192.20914937773819
1558057757657,,9.652999877929688,,
1558057757658,0.8330000042915344,,0.29600000381469727,194.09150853185872
1558057757708,,,,194.86312866277342
1558057757731,,9.54800033569336,0.24899999797344208,192.6222255583623
1558057757732,0.8230000138282776,,,
1558057757778,,,,193.1700477109323
1558057757802,0.765999972820282,9.682000160217285,0.3440000116825104,199.44950506778855
1558057757849,,,,200.07273250879553
1558057757873,,9.701000213623047,,
1558057757874,0.8040000200271606,,0.4300000071525574,203.10189408493954
1558057757903,,,,203.69759586359135
1558057757921,0.8040000200271606,9.652999877929688,0.28700000047683716,196.7814829138199
1558057757972,,,,196.64884064013825
1558057757986,0.7559999823570251,9.633999824523926,0.4020000100135803,203.6863397118392
1558057758031,,,,203.98009248766311
1558057758073,0.7749999761581421,9.652999877929688,0.2770000100135803,197.07903327482222
1558057758098,,,,197.7678168714831
1558057758123,0.8230000138282776,9.625,0.1809999942779541,191.6107974856884
1558057758172,,,,192.16213035549185
1558057758198,0.8330000042915344,9.633999824523926,0.4880000054836273,206.58466218424246
1558057758229,,,,206.44533998555244
1558057758249,0.7749999761581421,9.567000389099121,0.4399999976158142,206.13300909518614
1558057758297,,,,206.6628541898607
1558057758322,0.7749999761581421,9.67199993133545,0.9480000138282776,222.1048737145057
1558057758361,,,,222.95816924751534
1558057758397,0.8040000200271606,9.614999771118164,0.6890000104904175,215.68836178176394
1558057758448,,,,216.35982401868955
1558057758449,0.7369999885559082,9.682000160217285,0.8519999980926514,223.03707159280737
1558057758499,,,,223.7485177571342
1558057758523,0.7749999761581421,9.567000389099121,0.746999979019165,219.689349993774
1558057758573,,,,219.87871015832343
1558057758578,0.8330000042915344,9.625,0.8230000138282776,219.84906713732562
1558057758625,,,,219.67687806834954
1558057758650,0.8420000076293945,9.604999542236328,0.746999979019165,217.43672628474712
1558057758700,,,,217.62369588308707
1558057758726,0.9190000295639038,9.644000053405762,0.8330000042915344,217.41346266043405
1558057758776,,,,217.60771324042923
1558057758777,0.8420000076293945,9.644000053405762,0.9480000138282776,
1558057758828,,,,222.17426843647303
1558057758854,0.8230000138282776,9.595999717712402,0.8899999856948853,221.58572469607134
1558057758906,,,,221.73661723521525
1558057758911,,9.595999717712402,,
1558057758912,0.8519999980926514,,0.9190000295639038,221.3846849080412
1558057758957,,,,221.58247352602643
1558057758983,0.8330000042915344,9.644000053405762,0.6890000104904175,216.54791376805338
1558057759021,,,,216.88070790517304
1558057759057,0.8899999856948853,9.652999877929688,0.7749999761581421,217.44433511548255
1558057759108,0.9089999794960022,9.614999771118164,0.8040000200271606,217.17115486943868
1558057759160,,,,216.69551415601734
1558057759186,0.8610000014305115,9.644000053405762,0.4020000100135803,204.49429644913835
1558057759219,,,,203.66143684212534
1558057759238,,9.73900032043457,0.5070000290870667,207.2480238168124
1558057759239,0.8899999856948853,,,
1558057759288,,,,207.21519792766128
1558057759311,0.8899999856948853,9.529000282287598,0.1720000058412552,191.9881927580883
1558057759351,,,,191.6326267702758
1558057759386,0.7269999980926514,9.652999877929688,0.257999986410141,199.30276528366005
1558057759436,,9.692000389099121,,198.24852558526857
1558057759437,0.6790000200271606,,0.2290000021457672,197.66749505295388
1558057759483,,,,196.40403299990658
1558057759508,0.8420000076293945,9.652999877929688,-0.04699999839067459,177.6671675583168
1558057759557,,,,176.62832310631455
1558057759568,,9.663000106811523,-0.3440000116825104,
1558057759569,0.746999979019165,,,158.40938089157416
1558057759617,,,,157.9274154229814
1558057759658,0.7749999761581421,9.652999877929688,-0.20999999344348907,165.96878837813415
1558057759684,,,,165.09934627792657
1558057759709,0.8610000014305115,9.625,-0.23899999260902405,165.07091903060098
1558057759759,,,,164.7390264784517
1558057759766,,9.529000282287598,-0.5740000009536743,152.57420001947054
1558057759767,0.9380000233650208,,,
1558057759814,,,,150.99186375483202
1558057759838,0.8230000138282776,9.682000160217285,-0.20999999344348907,163.991872085144
1558057759891,,,,162.9578907278308
1558057759898,0.8420000076293945,9.786999702453613,0.0,174.9230980781292
1558057759945,,,,174.75036259401955
1558057759972,0.8040000200271606,9.557000160217285,-0.37299999594688416,154.1072359786799
1558057760025,,,,153.91026698339508
1558057760052,0.9190000295639038,9.595999717712402,-0.1809999942779541,165.50701294872795
1558057760079,,,,165.14845533805894
1558057760104,,9.960000038146973,,
1558057760105,0.5260000228881836,,0.20999999344348907,193.132836840334
1558057760156,,,,192.15154356227833
1558057760162,0.9959999918937683,9.595999717712402,-0.1809999942779541,165.16058575402488
1558057760209,,,,165.1733855285295
1558057760234,0.8709999918937683,9.604999542236328,-0.2290000021457672,161.17642712812975
1558057760288,,,,161.1535459944102
1558057760315,0.9089999794960022,9.652999877929688,-0.14300000667572021,166.00821223002347
1558057760342,,,,166.88959350090025
1558057760369,0.8519999980926514,9.633999824523926,-0.1720000058412552,164.70197953239355
1558057760422,,,,165.0149934416769
1558057760428,0.8809999823570251,9.682000160217285,-0.0949999988079071,169.42982281549803
1558057760476,,,,169.25225155745605
1558057760502,,9.625,-0.0860000029206276,
1558057760503,0.8420000076293945,,,169.4513105906269
1558057760539,,,,170.04855599203117
1558057760558,0.7940000295639038,9.652999877929688,-0.11400000005960464,167.98288822096586
1558057760610,,,,167.77885681007925
1558057760636,0.7749999761581421,9.595999717712402,-0.16200000047683716,164.69045017307457
1558057760690,,,,164.58959559979016
1558057760691,0.8519999980926514,9.567000389099121,-0.1720000058412552,165.1483733757889
1558057760742,,,,165.48863973986062
1558057760768,0.8610000014305115,9.644000053405762,-0.0860000029206276,170.24154981721904
1558057760820,,,,170.06714776695193
1558057760822,,9.652999877929688,,
1558057760823,0.8709999918937683,,-0.20100000500679016,164.03727918274626
1558057760871,,,,163.5173378623682
1558057760896,0.8809999823570251,9.595999717712402,-0.1809999942779541,164.70535364584353
1558057760935,,,,165.05617948237207
1558057760973,0.8330000042915344,9.652999877929688,-0.05700000002980232,171.34525374557973
1558057761006,,,,171.36012989759203
1558057761025,0.8899999856948853,9.644000053405762,-0.06700000166893005,171.12566316376382
1558057761076,,,,170.20172981435786
1558057761101,,9.652999877929688,,
1558057761102,0.8999999761581421,,-0.1809999942779541,164.38265452831712
1558057761134,,,,164.2105064404761
1558057761153,0.9760000109672546,9.5,0.4399999976158142,193.31397345712276
1558057761206,,,,193.74550480888422
1558057761219,,9.711000442504883,,
1558057761231,,,-0.0949999988079071,
1558057761232,0.8330000042915344,,,168.55755301697405
1558057761265,,,,168.52733626008592
1558057761288,0.8519999980926514,9.625,-0.23899999260902405,161.00496205920572
1558057761334,,,,160.86544861521907
1558057761359,0.8809999823570251,9.682000160217285,-0.20999999344348907,162.80788611327898
1558057761411,,,,162.61770632602915
1558057761417,0.8610000014305115,9.614999771118164,-0.2770000100135803,158.94109745808132
1558057761464,,,,158.2365634451945
1558057761491,0.8519999980926514,9.644000053405762,-0.14300000667572021,165.04568831180694
1558057761529,,,,164.6665718317362
1558057761571,0.8330000042915344,9.595999717712402,-0.20100000500679016,161.27027392732572
1558057761596,,,,161.6367545574319
1558057761622,0.8709999918937683,9.595999717712402,-0.20999999344348907,161.77884981292485
1558057761674,,,,162.13060455518053
1558057761680,0.8420000076293945,9.652999877929688,-0.23899999260902405,160.12143610892957
1558057761728,,,,160.278817327785
1558057761755,0.8420000076293945,9.54800033569336,-0.20999999344348907,161.83003525056495
1558057761793,,,,161.4903426223835
1558057761812,0.8330000042915344,9.644000053405762,-0.2290000021457672,160.2963572535736
1558057761864,,,,160.11795271245285
1558057761890,0.9190000295639038,9.682000160217285,-0.20100000500679016,162.90029857274925
1558057761941,,,,163.57363228150746
1558057761944,0.9760000109672546,9.652999877929688,-0.1809999942779541,165.23476160841122
1558057761994,,,,165.9100350908937
1558057762020,0.8709999918937683,9.692000389099121,0.04699999839067459,176.9069265225594
1558057762070,,,,176.89135369125174
1558057762076,0.9190000295639038,9.633999824523926,-0.32499998807907104,158.5236636167668
1558057762124,,,,158.85768718793713
1558057762151,,9.625,-0.11400000005960464,
1558057762152,,,,169.14471705916336
1558057762189,,,,168.12625389164444
1558057762234,0.8420000076293945,9.625,-0.29600000381469727,157.58396619075646
1558057762261,,,,156.87100372443385
1558057762287,0.9190000295639038,9.767999649047852,-0.20100000500679016,162.8510665692118
1558057762339,,,,163.18830032929202
1558057762341,0.9380000233650208,9.57699966430664,-0.5070000290870667,150.6450677299138
1558057762391,,,,151.01331054882587
1558057762417,0.8899999856948853,9.663000106811523,-0.29600000381469727,158.56520482729883
1558057762453,,,,158.24347559663457
1558057762494,0.8519999980926514,9.54800033569336,-0.1720000058412552,163.82767433749692
1558057762521,,,,163.493104351193
1558057762548,0.9089999794960022,9.644000053405762,-0.257999986410141,160.0571093873264
1558057762599,,,,160.05187746242214
1558057762604,0.8519999980926514,9.633999824523926,-0.0949999988079071,167.6485777818504
1558057762655,,,,167.4986414691903
1558057762680,0.9380000233650208,9.663000106811523,-0.06700000166893005,169.55629059817
1558057762732,,,,170.1932057382737
1558057762738,0.9190000295639038,9.652999877929688,0.0,173.50851125950618
1558057762783,,,,174.52090921904215
1558057762808,,9.682000160217285,,
1558057762809,0.8899999856948853,,0.1340000033378601,181.5318288369591
1558057762849,,,,182.5876667996164
1558057762885,0.8899999856948853,9.633999824523926,-0.04699999839067459,173.07055952992496
1558057762934,,,,173.95467287646974
1558057762935,0.9380000233650208,9.625,0.1809999942779541,
1558057762984,,,,185.66589645475767
1558057763010,0.9959999918937683,9.567000389099121,0.20100000500679016,185.98440183613377
1558057763060,,,,186.8412217467552
1558057763066,0.9480000138282776,9.633999824523926,0.11400000005960464,183.24326933728923
1558057763114,,,,183.77752673416762
1558057763141,1.0049999952316284,9.557000160217285,0.20999999344348907,187.66865818356723
1558057763179,,,,189.07032228428056
1558057763220,0.9480000138282776,9.625,0.4779999852180481,200.96552019558624
1558057763246,,,,201.7213762498966
1558057763273,0.9190000295639038,9.633999824523926,0.3630000054836273,197.78620374072875
1558057763328,,,,198.33985887484994
1558057763331,0.9190000295639038,9.644000053405762,0.4020000100135803,199.97715084155038
1558057763383,,,,200.1650356852391
1558057763396,0.9670000076293945,9.604999542236328,0.41100001335144043,199.48873767438113
1558057763443,,,,199.4742849940974
1558057763465,,9.586000442504883,0.41100001335144043,201.62052167661216
1558057763466,0.8709999918937683,,,
1558057763509,,,,202.56501389541984
1558057763548,0.6990000009536743,9.815999984741211,0.7369999885559082,220.0839163617473
1558057763575,,,,219.90563476403162
1558057763600,1.0820000171661377,9.567000389099121,0.3919999897480011,197.3855585043941
1558057763656,,,,197.69529392287586
1558057763660,1.062999963760376,9.701000213623047,0.621999979019165,205.6820663458036
1558057763711,,,,205.28612027961788
1558057763738,1.0049999952316284,9.633999824523926,0.5170000195503235,203.22610790518536
1558057763773,,,,203.76091171719736
1558057763792,0.9480000138282776,9.633999824523926,0.6600000262260437,209.74040082608508
1558057763844,,,,209.86334423114528
1558057763870,1.0149999856948853,9.633999824523926,0.5550000071525574,204.9304723295354
1558057763922,,,,204.5805753987339
1558057763924,,9.614999771118164,0.5260000228881836,205.43496376201085
1558057763925,0.9380000233650208,,,
1558057763975,,,,205.45860987691742
1558057764002,0.9860000014305115,9.586000442504883,0.6600000262260437,208.51455945498617
1558057764037,,,,208.5286706258114
1558057764057,0.9959999918937683,9.614999771118164,0.746999979019165,210.6762733461602
1558057764108,,,,210.73383818048507
1558057764133,0.9959999918937683,9.633999824523926,0.621999979019165,207.2217685696428
1558057764184,,,,207.7451386449843
1558057764188,1.0240000486373901,9.633999824523926,0.621999979019165,207.06390923754554
1558057764236,,,,207.43586767936608
1558057764260,0.9760000109672546,9.614999771118164,0.6320000290870667,208.9197809180647
1558057764311,,,,208.8818733681711
1558057764320,0.9670000076293945,9.633999824523926,0.6600000262260437,209.96661669139587
1558057764371,,,,209.96661669139587
1558057764391,,9.652999877929688,0.5929999947547913,
1558057764392,0.9190000295639038,,,209.19091210735752
1558057764444,,,,209.4278513696653
1558057764471,0.9480000138282776,9.614999771118164,0.6700000166893005,211.0062397849635
1558057764500,,,,211.55831031519733
1558057764526,0.9480000138282776,9.595999717712402,0.621999979019165,210.0855576056025
1558057764580,,,,210.40051128861012
1558057764584,0.9670000076293945,9.67199993133545,0.5450000166893005,207.43597696239271
1558057764633,,,,207.24736811865205
1558057764659,0.9670000076293945,9.644000053405762,0.6890000104904175,211.72241244019602
1558057764697,,,,211.3682261505959
1558057764741,,9.595999717712402,,
1558057764742,0.9570000171661377,,0.5260000228881836,206.45718353357324
1558057764769,,,,206.48737296970467
1558057764797,,9.633999824523926,,
1558057764798,0.9570000171661377,,0.6700000166893005,211.13605436032879
1558057764853,0.8899999856948853,9.652999877929688,0.5450000166893005,210.33267384977353
1558057764907,,,,208.32825921518491
1558057764914,0.9190000295639038,9.633999824523926,0.6029999852180481,209.5056472243117
1558057764961,,,,209.6251618744086
1558057764987,0.9190000295639038,9.644000053405762,0.6320000290870667,210.56226382853436
1558057765042,,,,209.97606967320718
1558057765070,0.9760000109672546,9.652999877929688,0.4779999852180481,203.29468300445228
1558057765097,,,,203.31231855288934
1558057765124,0.9480000138282776,9.644000053405762,0.4300000071525574,202.11810095764758
1558057765180,0.8809999823570251,9.625,0.3440000116825104,202.47093486979213
1558057765236,,,,200.29950844961832
1558057765244,0.9480000138282776,9.633999824523926,0.4779999852180481,204.30283258632448
1558057765292,,,,203.964301090302
1558057765320,0.9760000109672546,9.595999717712402,0.5170000195503235,204.69936604877876
1558057765357,,,,205.67228551491212
1558057765402,1.034000039100647,9.625,0.3919999897480011,199.91765989387955
1558057765429,,,,200.24396535128778
1558057765456,0.9959999918937683,9.633999824523926,0.32499998807907104,198.27513600227496
1558057765509,,9.586000442504883,,198.26967185093895
1558057765510,0.9670000076293945,,0.2770000100135803,
1558057765565,,,,196.6944663037939
1558057765574,0.9190000295639038,9.682000160217285,0.257999986410141,196.63268041256197
1558057765621,,,,195.42269874071587
1558057765646,0.9860000014305115,9.633999824523926,0.4300000071525574,201.40188732128001
1558057765700,,,,201.25753810336096
1558057765727,0.9089999794960022,9.625,0.11400000005960464,188.32544917415566
1558057765754,,,,188.16748055903156
1558057765779,0.9760000109672546,9.644000053405762,0.1809999942779541,190.7845221810353
1558057765831,,,,190.08032967760698
1558057765838,0.9480000138282776,9.595999717712402,0.1720000058412552,189.94558370566097
1558057765885,,,,188.71855388164659
1558057765908,0.9190000295639038,9.720000267028809,0.1809999942779541,189.48707310667805
1558057765959,,,,188.22716275199912
1558057765970,0.9959999918937683,9.595999717712402,0.0949999988079071,183.51534309268754
1558057766018,,,,182.78038741723742
1558057766040,0.9570000171661377,9.633999824523926,0.0,178.38552587408375
1558057766094,,,,177.33698255346007
1558057766123,0.9570000171661377,9.595999717712402,0.06700000166893005,180.59097027878988
1558057766151,,,,181.1572885836323
1558057766179,0.9380000233650208,9.682000160217285,0.1340000033378601,184.53317788280276
1558057766215,,,,184.36402141781832
1558057766236,0.6790000200271606,9.644000053405762,-0.0949999988079071,170.76035732619488
1558057766292,,,,169.6638660775977
1558057766300,1.0240000486373901,9.692000389099121,-0.14300000667572021,170.33933080537693
1558057766349,,,,169.67428894627113
1558057766371,,9.644000053405762,,
1558057766372,0.9480000138282776,,-0.01899999938905239,175.08359386324614
1558057766413,,,,174.76630425554237
1558057766434,0.8899999856948853,9.625,-0.11400000005960464,169.63446894340996
1558057766479,,,,169.2642180488819
1558057766498,,9.604999542236328,-0.20999999344348907,165.17984688748433
1558057766499,0.9480000138282776,,,
1558057766545,,,,164.6821993045572
1558057766564,,9.758999824523926,,
1558057766565,1.0049999952316284,,0.0949999988079071,179.29305310910334
1558057766611,,,,179.59545290441648
1558057766630,0.9670000076293945,9.644000053405762,-0.14300000667572021,168.34141851087816
1558057766696,,,,167.33412953284136
1558057766697,0.9760000109672546,9.604999542236328,-0.0949999988079071,169.68111913544115
1558057766761,,,,169.132409058279
1558057766762,0.9480000138282776,9.625,-0.04699999839067459,171.29465570420828
1558057766809,,,,171.57349134688488
1558057766828,0.9760000109672546,9.54800033569336,-0.12399999797344208,168.0725549443898
1558057766875,,,,168.5756256975179
1558057766895,1.0049999952316284,9.604999542236328,-0.11400000005960464,169.24263465110468
1558057766941,,,,169.71464170388757
1558057766960,1.1009999513626099,9.604999542236328,-0.06700000166893005,172.25443388637848
1558057767007,,,,172.6004102885963
1558057767038,0.9959999918937683,9.57699966430664,-0.0949999988079071,170.87772729689237
1558057767078,,,,170.85248291772
1558057767098,0.9760000109672546,9.644000053405762,-0.01899999938905239,174.30523916580984
1558057767140,,,,173.2309460320152
1558057767158,,9.567000389099121,,
1558057767159,1.187000036239624,,-0.1340000033378601,169.37788605704927
1558057767205,,,,170.3730036379851
1558057767226,0.9760000109672546,9.652999877929688,-0.1340000033378601,168.85829990650805
1558057767272,,,,168.6896215547654
1558057767303,,9.644000053405762,,
1558057767304,0.9760000109672546,,-0.06700000166893005,171.81962404381545
1558057767346,,,,171.85870638624627
1558057767368,1.0149999856948853,9.652999877929688,-0.0860000029206276,171.1834738848988
1558057767409,,,,170.4983922507682
1558057767429,1.0429999828338623,9.633999824523926,0.0,174.41766407954825
1558057767470,,,,174.6125976784604
1558057767491,0.9760000109672546,9.625,0.02800000086426735,175.87424290118847
1558057767536,,,,175.79908349956165
1558057767556,0.9670000076293945,9.633999824523926,-0.04699999839067459,172.21274241168473
1558057767601,,,,172.05092156986876
1558057767631,1.0049999952316284,9.652999877929688,-0.05700000002980232,171.73320849043645
1558057767669,,,,172.4273059742715
1558057767690,1.0820000171661377,9.625,-0.04699999839067459,173.14022745945908
1558057767733,,,,172.9773684288893
1558057767756,0.9670000076293945,9.604999542236328,-0.11400000005960464,169.40795254977567
1558057767801,,,,169.03286588131525
1558057767823,0.9860000014305115,9.633999824523926,-0.12399999797344208,168.7100984618971
1558057767868,,,,168.6682430626633
1558057767891,1.0149999856948853,9.625,-0.14300000667572021,168.05602588659835
1558057767935,,,,167.7892250372393
1558057767956,,9.633999824523926,,
1558057767957,0.9380000233650208,,-0.1720000058412552,165.6932448866375
1558057767999,,,,164.9661575891113
1558057768021,0.9860000014305115,9.604999542236328,-0.05700000002980232,170.78199536548547
1558057768065,,,,170.5641259913404
1558057768086,0.9860000014305115,9.625,-0.0860000029206276,169.20842906374125
1558057768131,,,,169.62231120668733
1558057768152,0.9480000138282776,9.595999717712402,-0.14300000667572021,166.63948563387274
1558057768200,,,,166.47079362175177
1558057768218,0.9480000138282776,9.625,-0.1720000058412552,165.08511216369624
1558057768261,,,,164.92191162366797
1558057768282,0.9860000014305115,9.644000053405762,-0.04699999839067459,171.10425735090502
1558057768347,1.0149999856948853,9.652999877929688,-0.2290000021457672,170.79419408334311
1558057768393,,,,162.5585842085735
1558057768415,0.9860000014305115,9.567000389099121,-0.12399999797344208,166.95781343033033
1558057768460,,,,167.53474584914298
1558057768480,0.9480000138282776,9.644000053405762,0.0,173.30475305618634
1558057768526,,,,173.92273491191077
1558057768545,1.0049999952316284,9.663000106811523,-0.05700000002980232,171.36017087872705
1558057768591,,,,171.37079865307558
1558057768610,0.9190000295639038,9.682000160217285,0.04699999839067459,176.31073297028732
1558057768671,,,,176.48240294488642
1558057768676,,9.682000160217285,,
1558057768677,0.9480000138282776,,0.1340000033378601,180.6876720970589
1558057768736,,,,181.2224076071792
1558057768742,,9.614999771118164,,
1558057768743,0.9760000109672546,,0.01899999938905239,175.57889186109878
1558057768789,,,,175.68107149108218
1558057768808,1.034000039100647,9.595999717712402,0.0860000029206276,178.65187593095754
1558057768855,,,,180.00698910475376
1558057768874,1.0240000486373901,9.625,0.11400000005960464,181.29025870639407
1558057768921,,,,181.9639475849891
1558057768953,0.9760000109672546,9.711000442504883,0.2290000021457672,187.506905643643
1558057768997,,,,187.620040897055
1558057769019,0.9860000014305115,9.786999702453613,0.2290000021457672,187.51332602146272
1558057769061,,,,188.23884237547986
1558057769083,1.062999963760376,9.652999877929688,0.4880000054836273,197.0496771217696
1558057769126,,,,198.18120724080893
1558057769138,1.0240000486373901,9.604999542236328,0.5070000290870667,199.57727058640285
1558057769191,,,,200.19700097055477
1558057769213,0.9860000014305115,9.625,0.3160000145435333,193.76719748968821
1558057769257,,,,193.57040607932174
1558057769280,1.0820000171661377,9.625,0.4399999976158142,196.62306350621054
1558057769325,,,,197.36114740830044
1558057769348,1.090999960899353,9.567000389099121,0.5170000195503235,199.71338259618278
1558057769393,,,,199.28316264074215
1558057769402,1.090999960899353,9.567000389099121,0.6029999852180481,201.8888934694803
1558057769459,,,,202.91898161896665
1558057769468,1.0149999856948853,9.682000160217285,0.7369999885559082,208.4074347680437
1558057769515,,,,209.0692937589963
1558057769547,1.1200000047683716,9.595999717712402,0.7080000042915344,205.81884771412228
1558057769591,,,,206.31660458007605
1558057769612,1.0429999828338623,9.604999542236328,0.621999979019165,205.71806144272955
1558057769656,,,,205.12313830564312
1558057769680,1.0820000171661377,9.567000389099121,0.6700000166893005,205.55311237427372
1558057769726,,,,206.34971733717225
1558057769732,,9.633999824523926,0.5740000009536743,204.70739835124277
1558057769733,1.034000039100647,,,
1558057769779,,,,204.9940067491948
1558057769798,1.034000039100647,9.595999717712402,0.6320000290870667,206.68906845589527
1558057769845,,,,206.88973941371023
1558057769878,1.0049999952316284,9.633999824523926,0.5740000009536743,205.86195986816335
1558057769914,,,,205.92527572176937
1558057769930,1.0529999732971191,9.633999824523926,0.6029999852180481,205.7022973661251
1558057769977,,,,205.41056632629557
1558057769996,,9.595999717712402,0.5740000009536743,
1558057769997,1.0149999856948853,,,205.37011794603075
1558057770043,,,,204.6810338210464
1558057770062,,9.5,0.8709999918937683,
1558057770064,0.9959999918937683,,,212.89191841102064
1558057770109,,,,213.17165563866763
1558057770129,,9.614999771118164,0.621999979019165,
1558057770130,1.0149999856948853,,,206.40874383197956
1558057770175,,,,206.76786151816054
1558057770194,1.062999963760376,9.652999877929688,0.5929999947547913,204.81945443476593
1558057770244,,,,204.15292359442105
1558057770260,1.0529999732971191,9.633999824523926,0.621999979019165,205.2259599734084
1558057770316,,,,205.4399088189699
1558057770326,1.0529999732971191,9.625,0.5740000009536743,203.98781060142517
1558057770373,,,,203.40575554073507
1558057770393,1.0240000486373901,9.595999717712402,0.5929999947547913,204.6228542696963
1558057770441,,,,205.4664509340846
1558057770458,,9.604999542236328,0.4880000054836273,
1558057770459,1.090999960899353,,,200.7364219904457
1558057770506,,,,200.32464354576393
1558057770524,1.0240000486373901,9.567000389099121,0.6890000104904175,207.77691268500314
1558057770573,,,,208.5256926633333
1558057770590,,9.652999877929688,0.5740000009536743,
1558057770592,1.090999960899353,,,203.76693594404537
1558057770637,,,,203.86367874344933
1558057770659,1.1200000047683716,9.557000160217285,0.6029999852180481,204.05559339874844
1558057770703,,,,204.15245914155753
1558057770722,,9.633999824523926,,
1558057770723,1.034000039100647,,0.6029999852180481,206.06269912787002
1558057770771,,,,206.7493926866448
1558057770788,,9.625,0.45899999141693115,
1558057770790,1.0529999732971191,,,201.7029347391375
1558057770835,,,,202.20778134144985
1558057770855,1.0240000486373901,9.682000160217285,0.621999979019165,208.086251952513
1558057770903,,,,208.42112246714044
1558057770920,0.9959999918937683,9.67199993133545,0.5740000009536743,207.62505025899713
1558057770969,,,,207.62302852300274
1558057770986,0.9760000109672546,9.652999877929688,0.5740000009536743,208.10331376505974
1558057771033,,,,207.76582045779105
1558057771052,,9.604999542236328,0.5260000228881836,
1558057771053,1.0429999828338623,,,204.63655562917143
1558057771099,,,,204.80314394302798
1558057771122,1.0240000486373901,9.586000442504883,0.3630000054836273,199.4326345005386
1558057771165,,,,199.082887833899
1558057771184,,9.604999542236328,0.6600000262260437,
1558057771185,1.090999960899353,,,207.39513243115607
1558057771231,,,,207.266246761518
1558057771250,1.0429999828338623,9.682000160217285,0.4880000054836273,203.17656171294607
1558057771297,,,,203.1850038267603
1558057771316,,9.652999877929688,0.5170000195503235,
1558057771317,0.9860000014305115,,,205.39004843802877
1558057771363,,,,204.30607009599112
1558057771382,,9.604999542236328,0.3919999897480011,
1558057771384,1.0529999732971191,,,198.5479474181036
1558057771429,,,,199.16075199043712
1558057771448,,9.595999717712402,,
1558057771449,1.0529999732971191,,0.41100001335144043,199.8426507564145
1558057771498,,,,200.18481591307545
1558057771515,1.062999963760376,9.595999717712402,0.4300000071525574,200.67321541986644
1558057771561,,,,201.03130857767178
1558057771580,1.0149999856948853,9.644000053405762,0.3440000116825104,198.72520448744376
1558057771627,,,,197.81555989378148
1558057771646,,9.595999717712402,0.5740000009536743,
1558057771648,1.1200000047683716,,,203.65498914354885
1558057771693,,,,203.10597853806325
1558057771714,,9.633999824523926,0.4020000100135803,
1558057771715,1.0429999828338623,,,198.97046292016057
1558057771759,,,,198.3058035516483
1558057771778,,9.586000442504883,,
1558057771779,1.062999963760376,,0.3160000145435333,194.75399590021493
1558057771828,,,,194.19911133204312
1558057771844,1.1490000486373901,9.644000053405762,0.4880000054836273,198.8077541537525
1558057771891,,,,199.3860116292642
1558057771910,,9.644000053405762,0.3160000145435333,
1558057771912,1.062999963760376,,,194.78432194012976
1558057771957,,,,193.8552659488463
1558057771977,1.0529999732971191,9.652999877929688,0.4020000100135803,197.21149796358554
1558057772023,,,,196.43441368133483
1558057772042,0.8899999856948853,9.614999771118164,0.257999986410141,193.24690099947327
1558057772089,,,,193.08169238382902
1558057772108,,9.604999542236328,0.2770000100135803,
1558057772109,1.062999963760376,,,191.42072698146535
1558057772157,,,,191.41250343370461
1558057772174,,9.633999824523926,0.1720000058412552,
1558057772176,1.0529999732971191,,,187.29265626975803
1558057772221,,,,186.94920703753303
1558057772242,1.034000039100647,9.604999542236328,0.1720000058412552,187.10253112402154
1558057772287,,,,186.93743179140392
1558057772306,1.0049999952316284,9.595999717712402,0.16200000047683716,186.7477437777743
1558057772353,,,,185.83241646672263
1558057772372,,9.614999771118164,0.5170000195503235,
1558057772373,1.090999960899353,,,198.11600625499193
1558057772419,,,,198.06324987384278
1558057772440,1.1009999513626099,9.595999717712402,0.1809999942779541,185.83946522194606
1558057772487,,,,184.99987104841148
1558057772504,,9.633999824523926,0.1340000033378601,183.71244869175575
1558057772505,1.0049999952316284,,,
1558057772551,,,,183.29582081276328
1558057772570,0.9860000014305115,9.567000389099121,0.06700000166893005,180.31676550437055
1558057772617,,,,179.7522467270033
1558057772636,,9.595999717712402,0.1809999942779541,
1558057772637,1.034000039100647,,,184.55722014868127
1558057772683,,,,184.47380987853705
1558057772704,,9.614999771118164,,
1558057772707,1.090999960899353,,0.28700000047683716,188.2068634297858
1558057772749,,,,188.38551385771666
1558057772769,,9.625,-0.01899999938905239,175.93661618868902
1558057772770,1.090999960899353,,,
1558057772815,,,,176.2977282901076
1558057772834,1.062999963760376,9.614999771118164,0.0949999988079071,181.15813552708937
1558057772887,,,,180.9985549873212
1558057772903,1.0240000486373901,9.633999824523926,0.01899999938905239,177.74988114916567
1558057772947,,,,176.89180448373696
1558057772966,,9.644000053405762,-0.01899999938905239,
1558057772968,1.090999960899353,,,175.28901863272344
1558057773014,,,,175.40905237719724
1558057773036,1.1009999513626099,9.586000442504883,0.06700000166893005,178.9604502172804
1558057773082,,,,179.6358329827896
1558057773098,1.034000039100647,9.633999824523926,-0.0860000029206276,173.06046451033168
1558057773145,,,,173.37789072181886
1558057773164,1.062999963760376,9.682000160217285,0.06700000166893005,180.02390065313875
1558057773211,,,,179.97918659236615
1558057773230,,9.633999824523926,,
1558057773232,1.0149999856948853,,-0.06700000166893005,174.11074269900453
1558057773277,,,,173.54262122422122
1558057773296,1.0049999952316284,9.595999717712402,0.0,176.5337932882016
1558057773345,,,,176.36454120056868
1558057773363,1.090999960899353,9.644000053405762,0.14300000667572021,182.25957183264563
1558057773412,,,,182.43559946793516
1558057773428,0.9959999918937683,9.614999771118164,0.0,176.54062347737158
1558057773475,,,,176.15322880802682
1558057773494,,9.614999771118164,0.20100000500679016,
1558057773495,1.0429999828338623,,,184.76010408778734
1558057773541,,,,185.01616787977105
1558057773560,1.0820000171661377,9.586000442504883,0.05700000002980232,178.80726273457535
1558057773607,,,,178.48065674884367
1558057773626,,9.633999824523926,,
1558057773627,1.0149999856948853,,-0.12399999797344208,170.51560432747664
1558057773673,,,,170.02456836766606
