timestamp,AccX,AccY,AccZ
1558057725171,-1.3209999799728394,3.1600000858306885,9.336999893188477
1558057725239,-1.2640000581741333,3.312999963760376,8.991999626159668
1558057725364,-1.1200000047683716,3.609999895095825,9.480999946594238
1558057725430,-1.2920000553131104,3.5910000801086426,9.184000015258789
1558057725563,-1.0240000486373901,3.9639999866485596,9.154999732971191
1558057725828,-0.5649999976158142,4.758999824523926,9.01200008392334
1558057725893,-0.6600000262260437,5.802999973297119,6.8470001220703125
1558057726090,0.5260000228881836,8.59000015258789,3.944999933242798
1558057726223,1.9529999494552612,7.901000022888184,-13.427000045776367
1558057726798,2.2980000972747803,8.83899974822998,2.0490000247955322
1558057726885,0.3059999942779541,9.480999946594238,-0.2770000100135803
1558057726902,0.6890000104904175,9.625,0.0949999988079071
1558057726922,0.9860000014305115,9.538000106811523,-0.05700000002980232
1558057726963,0.7369999885559082,9.87399959564209,-0.3919999897480011
1558057727012,0.7940000295639038,9.682000160217285,0.0949999988079071
1558057727023,0.5740000009536743,9.567000389099121,0.3160000145435333
1558057727062,0.6119999885559082,9.815999984741211,1.0149999856948853
1558057727088,0.45899999141693115,9.807000160217285,0.45899999141693115
1558057727122,0.28700000047683716,9.604999542236328,0.24899999797344208
1558057727143,0.4880000054836273,9.37600040435791,0.05700000002980232
1558057727182,0.5450000166893005,9.652999877929688,0.8140000104904175
1558057727211,0.45899999141693115,9.73900032043457,0.6890000104904175
1558057727282,0.44999998807907104,9.385000228881836,0.2290000021457672
1558057727342,0.4020000100135803,9.633999824523926,0.0860000029206276
1558057727366,0.3630000054836273,9.567000389099121,0.29600000381469727
1558057727422,0.0860000029206276,9.682000160217285,0.20999999344348907
1558057727462,0.37299999594688416,9.777999877929688,0.746999979019165
1558057727482,0.2290000021457672,9.682000160217285,0.8519999980926514
1558057727502,0.20100000500679016,9.652999877929688,0.5170000195503235
1558057727523,0.3059999942779541,9.701000213623047,0.5450000166893005
1558057727546,0.14300000667572021,9.510000228881836,0.4399999976158142
1558057727582,0.1809999942779541,9.404000282287598,0.4399999976158142
1558057727605,0.19099999964237213,9.442999839782715,0.37299999594688416
1558057727622,0.3440000116825104,9.538000106811523,0.4880000054836273
1558057727642,0.2680000066757202,9.614999771118164,0.3440000116825104
1558057727671,0.2199999988079071,9.786999702453613,0.24899999797344208
1558057727684,0.3160000145435333,9.854000091552734,0.41100001335144043
1558057727702,0.49799999594688416,9.815999984741211,0.640999972820282
1558057727722,0.49799999594688416,9.644000053405762,0.5170000195503235
1558057727744,0.5839999914169312,9.625,0.24899999797344208
1558057727782,0.8420000076293945,9.682000160217285,0.20100000500679016
1558057727803,0.8610000014305115,9.67199993133545,0.24899999797344208
1558057727826,0.8899999856948853,9.595999717712402,0.32499998807907104
1558057727870,0.7940000295639038,9.557000160217285,0.3440000116825104
1558057727902,0.7179999947547913,9.682000160217285,0.3919999897480011
1558057727922,0.7749999761581421,9.67199993133545,0.5740000009536743
1558057727942,0.5740000009536743,9.586000442504883,0.5170000195503235
1558057727983,0.5550000071525574,9.652999877929688,0.3630000054836273
1558057728002,0.6320000290870667,9.644000053405762,0.5070000290870667
1558057728025,0.6029999852180481,9.604999542236328,0.3440000116825104
1558057728042,0.640999972820282,9.614999771118164,0.2290000021457672
1558057728067,0.746999979019165,9.652999877929688,0.4300000071525574
1558057728084,0.8040000200271606,9.586000442504883,0.3630000054836273
1558057728122,1.1770000457763672,9.519000053405762,0.5740000009536743
1558057728142,1.1770000457763672,9.42300033569336,0.7080000042915344
1558057728162,0.9570000171661377,9.567000389099121,0.5550000071525574
1558057728192,1.0240000486373901,9.711000442504883,0.7749999761581421
1558057728202,1.0240000486373901,9.73900032043457,0.9279999732971191
1558057728222,1.0429999828338623,9.644000053405762,0.9380000233650208
1558057728247,1.1100000143051147,9.652999877929688,0.6320000290870667
1558057728265,1.1970000267028809,9.786999702453613,0.2770000100135803
1558057728282,1.1679999828338623,9.883000373840332,0.1340000033378601
1558057728302,0.9089999794960022,9.729999542236328,0.0949999988079071
1558057728331,0.8140000104904175,9.567000389099121,0.3630000054836273
1558057728342,0.8899999856948853,9.567000389099121,0.6600000262260437
1558057728362,0.9190000295639038,9.625,0.8899999856948853
1558057728382,0.9760000109672546,9.652999877929688,0.5450000166893005
1558057728403,1.062999963760376,9.510000228881836,0.4880000054836273
1558057728442,1.062999963760376,9.355999946594238,0.7850000262260437
1558057728465,0.8140000104904175,9.510000228881836,0.5740000009536743
1558057728502,0.7940000295639038,9.701000213623047,0.6890000104904175
1558057728529,0.6890000104904175,9.625,0.6890000104904175
1558057728582,0.4779999852180481,9.682000160217285,0.29600000381469727
1558057728626,0.4690000116825104,9.604999542236328,0.9760000109672546
1558057728662,0.5550000071525574,9.682000160217285,0.6320000290870667
1558057728691,0.5170000195503235,9.73900032043457,0.5740000009536743
1558057728702,0.3540000021457672,9.682000160217285,0.5740000009536743
1558057728727,0.4020000100135803,9.604999542236328,0.3440000116825104
1558057728742,0.41100001335144043,9.586000442504883,0.45899999141693115
1558057728763,0.4690000116825104,9.652999877929688,0.5929999947547913
1558057728826,0.15299999713897705,9.366000175476074,1.2450000047683716
1558057728844,0.19099999964237213,9.529000282287598,1.062999963760376
1558057728882,0.5450000166893005,9.86400032043457,1.2450000047683716
1558057728907,0.6510000228881836,9.883000373840332,1.1490000486373901
1558057728962,0.4779999852180481,9.682000160217285,0.8230000138282776
1558057728991,0.4690000116825104,9.567000389099121,0.9380000233650208
1558057729009,0.4690000116825104,9.529000282287598,0.9380000233650208
1558057729042,0.45899999141693115,9.652999877929688,0.45899999141693115
1558057729071,0.4779999852180481,9.614999771118164,0.5929999947547913
1558057729082,0.4690000116825104,9.633999824523926,0.7080000042915344
1558057729102,0.2680000066757202,9.442999839782715,0.7559999823570251
1558057729123,0.257999986410141,9.442999839782715,0.6890000104904175
1558057729156,0.3059999942779541,9.42300033569336,0.5170000195503235
1558057729162,0.2680000066757202,9.42300033569336,0.5450000166893005
1558057729202,0.45899999141693115,9.442999839782715,0.6320000290870667
1558057729243,0.7749999761581421,9.652999877929688,0.7850000262260437
1558057729264,0.8330000042915344,9.633999824523926,0.6320000290870667
1558057729282,0.9190000295639038,9.595999717712402,0.6700000166893005
1558057729302,1.090999960899353,9.604999542236328,0.7369999885559082
1558057729322,1.1579999923706055,9.595999717712402,0.5740000009536743
1558057729344,1.2640000581741333,9.595999717712402,0.6890000104904175
1558057729390,1.1299999952316284,9.720000267028809,0.9279999732971191
1558057729442,0.8040000200271606,9.786999702453613,1.1679999828338623
1558057729462,0.8230000138282776,9.777999877929688,1.1200000047683716
1558057729484,0.6790000200271606,9.767999649047852,1.062999963760376
1558057729525,0.6029999852180481,9.614999771118164,1.406999945640564
1558057729542,0.5170000195503235,9.682000160217285,1.4359999895095825
1558057729563,0.4690000116825104,9.786999702453613,1.312000036239624
1558057729585,0.4880000054836273,9.729999542236328,1.1679999828338623
1558057729602,0.45899999141693115,9.614999771118164,1.062999963760376
1558057729628,0.4300000071525574,9.5,0.8610000014305115
1558057729651,0.3630000054836273,9.5,0.3919999897480011
1558057729662,0.6320000290870667,9.395000457763672,0.3160000145435333
1558057729682,0.9190000295639038,9.45199966430664,0.4399999976158142
1558057729705,0.7179999947547913,9.510000228881836,0.5929999947547913
1558057729725,0.6600000262260437,9.567000389099121,0.5740000009536743
1558057729742,0.6700000166893005,9.652999877929688,0.257999986410141
1558057729762,0.7559999823570251,9.633999824523926,0.257999986410141
1558057729789,0.8140000104904175,9.567000389099121,0.24899999797344208
1558057729802,0.8040000200271606,9.519000053405762,-0.20100000500679016
1558057729822,0.8519999980926514,9.510000228881836,-0.5839999914169312
1558057729850,0.8999999761581421,9.510000228881836,-0.5929999947547913
1558057729869,0.6600000262260437,9.557000160217285,-0.4880000054836273
1558057729882,0.6890000104904175,9.538000106811523,-0.5740000009536743
1558057729902,0.4300000071525574,9.489999771118164,-0.6890000104904175
1558057729928,0.5550000071525574,9.54800033569336,-0.4690000116825104
1558057729947,0.6890000104904175,9.557000160217285,0.01899999938905239
1558057729962,0.9760000109672546,9.385000228881836,-0.05700000002980232
1558057729982,0.8230000138282776,9.395000457763672,-0.12399999797344208
1558057730005,1.0149999856948853,9.633999824523926,-0.16200000047683716
1558057730025,1.1579999923706055,9.767999649047852,-0.1720000058412552
1558057730055,0.9860000014305115,9.595999717712402,0.0
1558057730064,0.8420000076293945,9.586000442504883,-0.06700000166893005
1558057730083,0.7559999823570251,9.682000160217285,-0.3540000021457672
1558057730102,0.8899999856948853,9.835000038146973,-0.0860000029206276
1558057730122,0.9480000138282776,9.786999702453613,0.16200000047683716
1558057730145,0.8420000076293945,9.73900032043457,0.14300000667572021
1558057730164,0.7179999947547913,9.711000442504883,0.14300000667572021
1558057730182,0.7179999947547913,9.729999542236328,0.3440000116825104
1558057730222,0.9380000233650208,9.73900032043457,0.6700000166893005
1558057730245,0.7940000295639038,9.625,0.3160000145435333
1558057730460,0.5450000166893005,9.557000160217285,-0.1720000058412552
1558057730592,1.1490000486373901,9.614999771118164,-0.32499998807907104
1558057730662,0.9380000233650208,9.489999771118164,-0.37299999594688416
1558057730726,1.5509999990463257,9.45199966430664,-0.8809999823570251
1558057730790,1.628000020980835,9.489999771118164,-0.4880000054836273
1558057730859,1.6660000085830688,9.510000228881836,-0.5450000166893005
1558057730922,1.684999942779541,9.395000457763672,-0.8230000138282776
1558057730988,1.4839999675750732,9.567000389099121,-0.37299999594688416
1558057731057,1.7519999742507935,9.644000053405762,-0.4779999852180481
1558057731122,1.8380000591278076,9.395000457763672,-0.45899999141693115
1558057731186,2.0969998836517334,9.461999893188477,-0.3540000021457672
1558057731252,1.9249999523162842,9.529000282287598,-0.11400000005960464
1558057731322,1.7519999742507935,9.567000389099121,-0.3440000116825104
1558057731392,1.5800000429153442,9.42300033569336,-0.3440000116825104
1558057731453,1.7619999647140503,9.470999717712402,-0.3160000145435333
1558057731664,2.0390000343322754,9.470999717712402,-0.06700000166893005
1558057731789,1.8480000495910645,9.37600040435791,-0.3160000145435333
1558057731912,1.3209999799728394,9.74899959564209,-0.0860000029206276
1558057732050,1.350000023841858,9.45199966430664,-0.14300000667572021
1558057732176,1.2059999704360962,9.73900032043457,-0.2290000021457672
1558057732249,1.1200000047683716,9.567000389099121,-0.28700000047683716
1558057732309,1.253999948501587,9.480999946594238,-0.1720000058412552
1558057732376,1.2730000019073486,9.633999824523926,-0.257999986410141
1558057732449,1.1200000047683716,9.510000228881836,-0.04699999839067459
1558057732509,1.3309999704360962,9.633999824523926,-0.3160000145435333
1558057732836,1.0529999732971191,9.54800033569336,-0.3919999897480011
1558057732915,1.090999960899353,9.633999824523926,-0.4300000071525574
1558057732978,1.090999960899353,9.633999824523926,-0.5450000166893005
1558057733041,1.034000039100647,9.604999542236328,-0.5170000195503235
1558057733101,1.034000039100647,9.567000389099121,-0.5740000009536743
1558057733166,0.9760000109672546,9.604999542236328,-0.7179999947547913
1558057733239,0.9760000109672546,9.557000160217285,-0.621999979019165
1558057733299,0.9760000109672546,9.567000389099121,-0.6320000290870667
1558057733364,1.0049999952316284,9.510000228881836,-0.7080000042915344
1558057733430,0.9190000295639038,9.557000160217285,-0.6320000290870667
1558057733497,1.0820000171661377,9.510000228881836,-0.5170000195503235
1558057733628,1.350000023841858,9.633999824523926,-0.6990000009536743
1558057733694,0.7369999885559082,9.519000053405762,-1.1299999952316284
1558057733833,1.1679999828338623,9.663000106811523,-0.8040000200271606
1558057733897,1.49399995803833,9.404000282287598,-1.1200000047683716
1558057733961,1.5410000085830688,9.461999893188477,-1.1490000486373901
1558057734090,1.1579999923706055,9.461999893188477,-1.340000033378601
1558057734161,1.0529999732971191,9.595999717712402,-1.1100000143051147
1558057734489,1.2640000581741333,9.557000160217285,-1.0049999952316284
1558057734552,1.3020000457763672,9.489999771118164,-0.8899999856948853
1558057734618,1.2350000143051147,9.519000053405762,-0.8999999761581421
1558057734684,1.1770000457763672,9.633999824523926,-0.8230000138282776
1558057734821,1.1490000486373901,9.567000389099121,-0.765999972820282
1558057734885,1.0820000171661377,9.567000389099121,-0.8140000104904175
1558057734949,1.090999960899353,9.57699966430664,-0.5450000166893005
1558057735098,1.0820000171661377,9.538000106811523,-0.6990000009536743
1558057735160,0.9480000138282776,9.633999824523926,-0.6990000009536743
1558057735289,0.9190000295639038,9.595999717712402,-0.8330000042915344
1558057735350,0.9670000076293945,9.567000389099121,-0.765999972820282
1558057735370,0.9670000076293945,9.567000389099121,-0.6990000009536743
1558057735393,0.9760000109672546,9.557000160217285,-0.746999979019165
1558057735409,0.9190000295639038,9.54800033569336,-0.6990000009536743
1558057735424,1.0049999952316284,9.567000389099121,-0.6510000228881836
1558057735469,0.9380000233650208,9.567000389099121,-0.6890000104904175
1558057735486,1.0049999952316284,9.557000160217285,-0.6890000104904175
1558057735544,0.8999999761581421,9.595999717712402,-0.765999972820282
1558057735564,0.8899999856948853,9.567000389099121,-0.7080000042915344
1558057735624,0.9190000295639038,9.557000160217285,-0.6990000009536743
1558057735644,0.9190000295639038,9.595999717712402,-0.621999979019165
1558057735673,0.9190000295639038,9.57699966430664,-0.7369999885559082
1558057735684,0.9670000076293945,9.567000389099121,-0.5550000071525574
1558057735704,0.9190000295639038,9.614999771118164,-0.6700000166893005
1558057735724,0.8999999761581421,9.595999717712402,-0.7850000262260437
1558057735744,0.9480000138282776,9.567000389099121,-0.5740000009536743
1558057735764,0.9480000138282776,9.529000282287598,-0.6510000228881836
1558057735799,0.9380000233650208,9.595999717712402,-0.7179999947547913
1558057735819,0.9670000076293945,9.604999542236328,-0.6320000290870667
1558057735824,0.9480000138282776,9.625,-0.6890000104904175
1558057735927,0.9570000171661377,9.595999717712402,-0.765999972820282
1558057735950,0.9089999794960022,9.57699966430664,-0.8040000200271606
1558057735973,0.9570000171661377,9.567000389099121,-0.7850000262260437
1558057735994,0.9190000295639038,9.595999717712402,-0.621999979019165
1558057736004,0.9380000233650208,9.595999717712402,-0.7080000042915344
1558057736064,0.9089999794960022,9.557000160217285,-0.746999979019165
1558057736084,0.8709999918937683,9.625,-0.5839999914169312
1558057736104,0.8899999856948853,9.57699966430664,-0.6700000166893005
1558057736166,0.9860000014305115,9.57699966430664,-0.765999972820282
1558057736189,1.034000039100647,9.633999824523926,-0.7179999947547913
1558057736212,1.062999963760376,9.633999824523926,-0.6890000104904175
1558057736224,1.1579999923706055,9.595999717712402,-0.6700000166893005
1558057736256,1.2059999704360962,9.557000160217285,-0.746999979019165
1558057736279,1.406999945640564,9.25100040435791,-0.5450000166893005
1558057736285,1.034000039100647,9.480999946594238,-0.9279999732971191
1558057736304,1.034000039100647,9.510000228881836,-0.9480000138282776
1558057736326,0.9670000076293945,9.567000389099121,-0.8230000138282776
1558057736348,0.8610000014305115,9.567000389099121,-0.8040000200271606
1558057736393,0.7179999947547913,9.480999946594238,-1.0820000171661377
1558057736416,0.8420000076293945,9.529000282287598,-0.9480000138282776
1558057736424,0.8140000104904175,9.557000160217285,-0.8610000014305115
1558057736479,0.640999972820282,9.652999877929688,-0.8519999980926514
1558057736484,0.7749999761581421,9.644000053405762,-0.9279999732971191
1558057736504,0.8140000104904175,9.57699966430664,-0.7749999761581421
1558057736545,0.7179999947547913,9.692000389099121,-0.9190000295639038
1558057736568,0.6890000104904175,9.633999824523926,-0.6700000166893005
1558057736592,0.6510000228881836,9.595999717712402,-0.6320000290870667
1558057736615,0.7559999823570251,9.614999771118164,-0.7749999761581421
1558057736647,1.1100000143051147,9.42300033569336,-0.8330000042915344
1558057736665,0.9190000295639038,9.538000106811523,-0.9959999918937683
1558057736690,0.9480000138282776,9.567000389099121,-0.765999972820282
1558057736731,0.9959999918937683,9.538000106811523,-1.062999963760376
1558057736773,1.1299999952316284,9.510000228881836,-1.0049999952316284
1558057736794,1.090999960899353,9.567000389099121,-1.1770000457763672
1558057736804,0.9190000295639038,9.652999877929688,-1.1200000047683716
1558057736837,0.8040000200271606,9.625,-0.8519999980926514
1558057736881,0.9670000076293945,9.767999649047852,-0.8809999823570251
1558057736906,1.062999963760376,9.663000106811523,-0.7080000042915344
1558057736912,0.746999979019165,9.567000389099121,-0.7749999761581421
1558057736928,0.8330000042915344,9.557000160217285,-0.7850000262260437
1558057736951,0.9089999794960022,9.510000228881836,-0.6700000166893005
1558057736973,0.8519999980926514,9.442999839782715,-0.9480000138282776
1558057736996,1.1200000047683716,9.184000015258789,-0.7080000042915344
1558057737004,0.765999972820282,9.385000228881836,-1.1100000143051147
1558057737024,0.8999999761581421,9.510000228881836,-0.9760000109672546
1558057737087,0.8999999761581421,9.652999877929688,-1.0149999856948853
1558057737110,0.8899999856948853,9.54800033569336,-0.9760000109672546
1558057737131,0.8899999856948853,9.480999946594238,-1.1200000047683716
1558057737154,0.9480000138282776,9.519000053405762,-1.1579999923706055
1558057737165,0.9860000014305115,9.682000160217285,-1.1299999952316284
1558057737200,0.9760000109672546,9.652999877929688,-1.062999963760376
1558057737204,0.8420000076293945,9.529000282287598,-1.350000023841858
1558057737248,0.9760000109672546,9.432999610900879,-1.312000036239624
1558057737270,0.9480000138282776,9.480999946594238,-1.340000033378601
1558057737293,0.8420000076293945,9.538000106811523,-1.3589999675750732
1558057737307,1.0240000486373901,9.557000160217285,-1.034000039100647
1558057737324,0.8899999856948853,9.510000228881836,-1.2059999704360962
1558057737362,0.8519999980926514,9.54800033569336,-1.2920000553131104
1558057737386,0.8519999980926514,9.42300033569336,-1.1770000457763672
1558057737410,0.7749999761581421,9.538000106811523,-1.1770000457763672
1558057737434,0.6600000262260437,9.567000389099121,-1.2350000143051147
1558057737444,0.6890000104904175,9.595999717712402,-1.2059999704360962
1558057737464,0.7269999980926514,9.54800033569336,-1.225000023841858
1558057737507,0.8040000200271606,9.567000389099121,-1.2450000047683716
1558057737577,0.8610000014305115,9.510000228881836,-1.0149999856948853
1558057737584,0.8809999823570251,9.529000282287598,-1.1770000457763672
1558057737604,0.765999972820282,9.470999717712402,-1.3880000114440918
1558057737624,0.7749999761581421,9.432999610900879,-1.2450000047683716
1558057737647,0.8330000042915344,9.489999771118164,-1.1770000457763672
1558057737670,0.8040000200271606,9.644000053405762,-1.1490000486373901
1558057737684,0.7749999761581421,9.692000389099121,-1.2350000143051147
1558057737717,0.7559999823570251,9.86400032043457,-1.2450000047683716
1558057737724,0.7559999823570251,9.892999649047852,-1.1970000267028809
1558057737744,0.9190000295639038,9.911999702453613,-1.090999960899353
1558057737789,0.9190000295639038,9.395000457763672,-1.2450000047683716
1558057737813,0.9670000076293945,9.307999610900879,-1.312000036239624
1558057737824,1.1200000047683716,9.395000457763672,-1.312000036239624
1558057737861,1.1390000581741333,9.173999786376953,-1.340000033378601
1558057737887,0.7269999980926514,9.279999732971191,-1.1100000143051147
1558057737911,0.8040000200271606,9.835000038146973,-1.1579999923706055
1558057737936,0.8040000200271606,9.949999809265137,-1.2920000553131104
1558057737944,0.7940000295639038,9.854000091552734,-0.8519999980926514
1558057737967,0.9480000138282776,9.37600040435791,-0.7850000262260437
1558057737986,1.090999960899353,9.25100040435791,-1.0429999828338623
1558057738010,1.1679999828338623,9.366000175476074,-0.9279999732971191
1558057738035,1.2829999923706055,9.519000053405762,-1.0429999828338623
1558057738084,1.225000023841858,9.298999786376953,-1.0820000171661377
1558057738109,1.406999945640564,9.404000282287598,-0.9959999918937683
1558057738124,1.4170000553131104,9.404000282287598,-1.034000039100647
1558057738165,1.3020000457763672,9.567000389099121,-0.9670000076293945
1558057738186,1.0049999952316284,9.633999824523926,-1.0820000171661377
1558057738244,1.1390000581741333,9.777999877929688,-0.9279999732971191
1558057738264,1.0429999828338623,9.604999542236328,-0.8140000104904175
1558057738285,1.0049999952316284,9.470999717712402,-0.8330000042915344
1558057738306,1.1299999952316284,9.470999717712402,-0.9480000138282776
1558057738331,1.090999960899353,9.510000228881836,-0.9670000076293945
1558057738344,0.9959999918937683,9.461999893188477,-1.1100000143051147
1558057738379,0.9570000171661377,9.480999946594238,-1.0149999856948853
1558057738402,1.0820000171661377,9.519000053405762,-1.062999963760376
1558057738429,1.0429999828338623,9.480999946594238,-0.9670000076293945
1558057738452,1.0820000171661377,9.633999824523926,-0.9480000138282776
1558057738529,0.8809999823570251,9.480999946594238,-1.0429999828338623
1558057738547,0.9190000295639038,9.45199966430664,-1.062999963760376
1558057738572,0.8899999856948853,9.529000282287598,-1.0429999828338623
1558057738596,0.9089999794960022,9.57699966430664,-1.0429999828338623
1558057738604,0.9959999918937683,9.510000228881836,-0.9279999732971191
1558057738630,0.9760000109672546,9.489999771118164,-1.0820000171661377
1558057738678,1.0049999952316284,9.510000228881836,-1.0049999952316284
1558057738702,1.034000039100647,9.538000106811523,-1.1299999952316284
1558057738704,1.0240000486373901,9.663000106811523,-1.1490000486373901
1558057738727,0.9760000109672546,9.682000160217285,-1.1299999952316284
1558057738751,0.9860000014305115,9.57699966430664,-1.062999963760376
1558057738810,0.9670000076293945,9.510000228881836,-0.9959999918937683
1558057738876,0.9760000109672546,9.567000389099121,-0.9480000138282776
1558057738946,0.9380000233650208,9.480999946594238,-0.9760000109672546
1558057739074,0.8519999980926514,9.663000106811523,-1.0049999952316284
1558057739147,0.8809999823570251,9.461999893188477,-1.062999963760376
1558057739206,0.9480000138282776,9.519000053405762,-1.0149999856948853
1558057739273,0.9480000138282776,9.57699966430664,-0.9760000109672546
1558057739404,0.9380000233650208,9.557000160217285,-0.8330000042915344
1558057739473,1.062999963760376,9.595999717712402,-0.8809999823570251
1558057739536,1.1679999828338623,9.510000228881836,-0.9190000295639038
1558057739622,1.0429999828338623,9.625,-0.7850000262260437
1558057739672,0.8809999823570251,9.557000160217285,-1.062999963760376
1558057739800,0.8709999918937683,9.567000389099121,-1.062999963760376
1558057739889,0.8040000200271606,9.510000228881836,-0.9670000076293945
1558057739938,0.8040000200271606,9.557000160217285,-0.9959999918937683
1558057740011,0.9480000138282776,9.510000228881836,-0.8999999761581421
1558057740067,1.0240000486373901,9.567000389099121,-0.9480000138282776
1558057740204,0.8899999856948853,9.470999717712402,-1.1490000486373901
1558057740328,0.8899999856948853,9.604999542236328,-1.225000023841858
1558057740396,0.8420000076293945,9.489999771118164,-1.1490000486373901
1558057740469,0.765999972820282,9.470999717712402,-1.2920000553131104
1558057740544,0.8230000138282776,9.633999824523926,-1.062999963760376
1558057740727,0.8899999856948853,9.633999824523926,-0.6320000290870667
1558057740790,0.8140000104904175,9.567000389099121,-0.8230000138282776
1558057740858,0.8140000104904175,9.595999717712402,-0.6700000166893005
1558057740938,0.8330000042915344,9.633999824523926,-0.6600000262260437
1558057740991,1.034000039100647,9.567000389099121,-0.7749999761581421
1558057741067,1.0049999952316284,9.538000106811523,-0.8519999980926514
1558057741120,1.034000039100647,9.57699966430664,-0.8999999761581421
1558057741193,0.9860000014305115,9.567000389099121,-0.6890000104904175
1558057741327,0.9959999918937683,9.54800033569336,-0.6990000009536743
1558057741384,0.9570000171661377,9.625,-0.765999972820282
1558057741453,0.9959999918937683,9.595999717712402,-0.6890000104904175
1558057741528,0.9570000171661377,9.625,-0.6700000166893005
1558057741582,0.9860000014305115,9.604999542236328,-0.5170000195503235
1558057741655,1.034000039100647,9.54800033569336,-0.5929999947547913
1558057741714,0.9480000138282776,9.625,-0.6700000166893005
1558057741849,0.9670000076293945,9.510000228881836,-0.7179999947547913
1558057741924,0.9860000014305115,9.595999717712402,-0.6029999852180481
1558057741978,1.0049999952316284,9.54800033569336,-0.7179999947547913
1558057742053,1.0529999732971191,9.567000389099121,-0.6510000228881836
1558057742129,0.9860000014305115,9.652999877929688,-0.4690000116825104
1558057742179,0.9959999918937683,9.57699966430664,-0.4690000116825104
1558057742258,0.9190000295639038,9.604999542236328,-0.5550000071525574
1558057742374,0.9959999918937683,9.57699966430664,-0.5839999914169312
1558057742442,0.9480000138282776,9.604999542236328,-0.6320000290870667
1558057742573,1.0820000171661377,9.625,-0.5170000195503235
1558057742647,0.9570000171661377,9.595999717712402,-0.4779999852180481
1558057742704,0.9760000109672546,9.567000389099121,-0.45899999141693115
1558057742776,0.9760000109672546,9.614999771118164,-0.5360000133514404
1558057742853,0.9480000138282776,9.614999771118164,-0.5740000009536743
1558057742904,0.9380000233650208,9.633999824523926,-0.5550000071525574
1558057742975,0.8809999823570251,9.614999771118164,-0.5929999947547913
1558057743034,1.0049999952316284,9.595999717712402,-0.37299999594688416
1558057743103,1.062999963760376,9.567000389099121,-0.4020000100135803
1558057743175,1.034000039100647,9.644000053405762,-0.4779999852180481
1558057743232,0.9760000109672546,9.663000106811523,-0.29600000381469727
1558057743302,0.9380000233650208,9.652999877929688,-0.6990000009536743
1558057743562,0.8610000014305115,9.633999824523926,-0.8230000138282776
1558057743636,0.8230000138282776,9.633999824523926,-0.8809999823570251
1558057743694,0.9670000076293945,9.519000053405762,-0.7749999761581421
1558057743826,0.9480000138282776,9.614999771118164,-0.746999979019165
1558057743848,1.0049999952316284,9.57699966430664,-0.7369999885559082
1558057743874,0.9480000138282776,9.644000053405762,-0.7749999761581421
1558057743907,1.0820000171661377,9.595999717712402,-0.6029999852180481
1558057743951,1.1009999513626099,9.567000389099121,-0.7850000262260437
1558057744033,0.9570000171661377,9.57699966430664,-0.7179999947547913
1558057744060,0.8899999856948853,9.595999717712402,-0.7749999761581421
1558057744066,0.8899999856948853,9.57699966430664,-0.9279999732971191
1558057744087,0.9190000295639038,9.480999946594238,-0.8330000042915344
1558057744114,0.9380000233650208,9.510000228881836,-0.8040000200271606
1558057744146,0.9480000138282776,9.557000160217285,-0.8330000042915344
1558057744171,0.9760000109672546,9.57699966430664,-0.8330000042915344
1558057744193,1.0149999856948853,9.614999771118164,-0.8040000200271606
1558057744220,0.9380000233650208,9.567000389099121,-0.9480000138282776
1558057744226,1.0149999856948853,9.567000389099121,-0.9959999918937683
1558057744246,1.0429999828338623,9.595999717712402,-0.6990000009536743
1558057744272,1.0149999856948853,9.633999824523926,-0.7850000262260437
1558057744298,1.0429999828338623,9.557000160217285,-0.746999979019165
1558057744324,1.1100000143051147,9.567000389099121,-0.8230000138282776
1558057744327,1.0049999952316284,9.529000282287598,-0.9190000295639038
1558057744350,1.0429999828338623,9.54800033569336,-0.8999999761581421
1558057744377,1.0820000171661377,9.529000282287598,-0.9190000295639038
1558057744403,0.9670000076293945,9.57699966430664,-0.8899999856948853
1558057744407,0.9570000171661377,9.538000106811523,-0.8809999823570251
1558057744454,0.9480000138282776,9.595999717712402,-0.8809999823570251
1558057744479,1.034000039100647,9.538000106811523,-0.8040000200271606
1558057744486,0.9860000014305115,9.567000389099121,-0.7369999885559082
1558057744507,0.9089999794960022,9.557000160217285,-0.9279999732971191
1558057744531,0.9380000233650208,9.595999717712402,-0.8999999761581421
1558057744556,0.9670000076293945,9.567000389099121,-0.8610000014305115
1558057744581,0.9860000014305115,9.614999771118164,-0.746999979019165
1558057744587,0.9570000171661377,9.57699966430664,-0.7850000262260437
1558057744607,0.9860000014305115,9.489999771118164,-0.9279999732971191
1558057744634,1.0049999952316284,9.57699966430664,-0.7749999761581421
1558057744660,0.9670000076293945,9.567000389099121,-0.8330000042915344
1558057744666,1.062999963760376,9.625,-0.8140000104904175
1558057744712,1.034000039100647,9.54800033569336,-0.8519999980926514
1558057744765,1.0240000486373901,9.57699966430664,-0.746999979019165
1558057744768,1.062999963760376,9.54800033569336,-0.8230000138282776
1558057744792,1.0429999828338623,9.557000160217285,-0.765999972820282
1558057744807,0.9670000076293945,9.557000160217285,-0.746999979019165
1558057744842,0.9570000171661377,9.567000389099121,-0.6890000104904175
1558057744849,0.9480000138282776,9.633999824523926,-0.6990000009536743
1558057744867,0.9760000109672546,9.595999717712402,-0.8040000200271606
1558057744890,0.9670000076293945,9.567000389099121,-0.746999979019165
1558057744913,1.0240000486373901,9.595999717712402,-0.7369999885559082
1558057744936,1.0240000486373901,9.57699966430664,-0.746999979019165
1558057744984,0.9860000014305115,9.557000160217285,-0.6990000009536743
1558057745008,1.0529999732971191,9.595999717712402,-0.7179999947547913
1558057745032,1.0429999828338623,9.567000389099121,-0.6700000166893005
1558057745056,0.9959999918937683,9.633999824523926,-0.6510000228881836
1558057745103,1.062999963760376,9.595999717712402,-0.6510000228881836
1558057745128,1.034000039100647,9.595999717712402,-0.6890000104904175
1558057745206,0.9760000109672546,9.595999717712402,-0.5070000290870667
1558057745227,1.0240000486373901,9.54800033569336,-0.6990000009536743
1558057745250,1.0820000171661377,9.557000160217285,-0.7080000042915344
1558057745273,1.1009999513626099,9.510000228881836,-0.5740000009536743
1558057745296,1.034000039100647,9.538000106811523,-0.8140000104904175
1558057745306,1.0529999732971191,9.644000053405762,-0.8040000200271606
1558057745344,1.034000039100647,9.652999877929688,-0.6600000262260437
1558057745369,1.034000039100647,9.652999877929688,-0.8519999980926514
1558057745418,1.0429999828338623,9.54800033569336,-0.7749999761581421
1558057745442,0.9760000109672546,9.54800033569336,-0.7749999761581421
1558057745446,0.8899999856948853,9.567000389099121,-0.746999979019165
1558057745467,0.9670000076293945,9.57699966430664,-0.7749999761581421
1558057745491,0.9570000171661377,9.557000160217285,-0.8230000138282776
1558057745515,0.9190000295639038,9.510000228881836,-0.7850000262260437
1558057745526,0.9089999794960022,9.538000106811523,-0.7850000262260437
1558057745568,0.9570000171661377,9.595999717712402,-0.7179999947547913
1558057745589,0.9570000171661377,9.595999717712402,-0.765999972820282
1558057745614,0.9380000233650208,9.567000389099121,-0.7369999885559082
1558057745640,0.9760000109672546,9.614999771118164,-0.765999972820282
1558057745646,0.9570000171661377,9.595999717712402,-0.8040000200271606
1558057745667,0.9860000014305115,9.604999542236328,-0.8230000138282776
1558057745689,1.0049999952316284,9.567000389099121,-0.746999979019165
1558057745714,1.034000039100647,9.567000389099121,-0.7179999947547913
1558057745737,0.9670000076293945,9.57699966430664,-0.7850000262260437
1558057745760,1.034000039100647,9.595999717712402,-0.8040000200271606
1558057745784,0.9760000109672546,9.567000389099121,-0.7850000262260437
1558057745787,0.9570000171661377,9.567000389099121,-0.7179999947547913
1558057745834,1.0240000486373901,9.557000160217285,-0.7179999947547913
1558057745860,1.0429999828338623,9.57699966430664,-0.8230000138282776
1558057745866,1.0240000486373901,9.54800033569336,-0.746999979019165
1558057745888,0.9860000014305115,9.567000389099121,-0.7749999761581421
1558057745937,1.0149999856948853,9.604999542236328,-0.8230000138282776
1558057745960,0.9860000014305115,9.567000389099121,-0.7749999761581421
1558057745966,0.9760000109672546,9.538000106811523,-0.765999972820282
1558057746003,0.9480000138282776,9.595999717712402,-0.765999972820282
1558057746006,0.9480000138282776,9.644000053405762,-0.7080000042915344
1558057746028,1.0149999856948853,9.567000389099121,-0.6990000009536743
1558057746064,0.9860000014305115,9.57699966430664,-0.7850000262260437
1558057746107,1.034000039100647,9.57699966430664,-0.8809999823570251
1558057746128,1.034000039100647,9.54800033569336,-0.7080000042915344
1558057746151,1.0240000486373901,9.604999542236328,-0.6990000009536743
1558057746173,1.0529999732971191,9.595999717712402,-0.7179999947547913
1558057746216,1.0149999856948853,9.595999717712402,-0.8140000104904175
1558057746239,1.0049999952316284,9.510000228881836,-0.8519999980926514
1558057746246,1.062999963760376,9.567000389099121,-0.6890000104904175
1558057746266,1.0049999952316284,9.595999717712402,-0.8140000104904175
1558057746307,1.0049999952316284,9.625,-0.8040000200271606
1558057746327,1.034000039100647,9.604999542236328,-0.6990000009536743
1558057746349,1.090999960899353,9.54800033569336,-0.8610000014305115
1558057746369,1.0529999732971191,9.529000282287598,-0.7369999885559082
1558057746391,1.0529999732971191,9.489999771118164,-0.6990000009536743
1558057746419,1.0429999828338623,9.57699966430664,-0.7850000262260437
1558057746434,1.0429999828338623,9.54800033569336,-0.8610000014305115
1558057746456,0.9860000014305115,9.529000282287598,-0.7080000042915344
1558057746467,0.9860000014305115,9.567000389099121,-0.6990000009536743
1558057746521,0.9480000138282776,9.625,-0.765999972820282
1558057746527,0.9380000233650208,9.663000106811523,-0.7179999947547913
1558057746548,0.9190000295639038,9.595999717712402,-0.746999979019165
1558057746587,0.9190000295639038,9.567000389099121,-0.7850000262260437
1558057746613,0.9570000171661377,9.57699966430664,-0.8899999856948853
1558057746653,1.034000039100647,9.54800033569336,-0.8230000138282776
1558057746670,1.0049999952316284,9.567000389099121,-0.7850000262260437
1558057746692,0.9570000171661377,9.567000389099121,-0.8230000138282776
1558057746706,1.0049999952316284,9.54800033569336,-0.8040000200271606
1558057746731,1.0049999952316284,9.557000160217285,-0.8230000138282776
1558057746753,1.0149999856948853,9.595999717712402,-0.7850000262260437
1558057746766,0.9670000076293945,9.604999542236328,-0.7080000042915344
1558057746798,0.9670000076293945,9.538000106811523,-0.7080000042915344
1558057746821,0.9760000109672546,9.57699966430664,-0.6890000104904175
1558057746826,1.0049999952316284,9.595999717712402,-0.6990000009536743
1558057746891,0.9860000014305115,9.625,-0.621999979019165
1558057746915,0.9760000109672546,9.625,-0.746999979019165
1558057746938,1.0049999952316284,9.604999542236328,-0.746999979019165
1558057746960,0.9190000295639038,9.567000389099121,-0.7850000262260437
1558057746966,0.9760000109672546,9.595999717712402,-0.6990000009536743
1558057746986,0.9190000295639038,9.567000389099121,-0.7179999947547913
1558057747026,0.9480000138282776,9.604999542236328,-0.8140000104904175
1558057747048,0.9959999918937683,9.595999717712402,-0.7369999885559082
1558057747075,1.0529999732971191,9.557000160217285,-0.8519999980926514
1558057747115,1.0049999952316284,9.595999717712402,-0.746999979019165
1558057747126,1.062999963760376,9.57699966430664,-0.6029999852180481
1558057747163,0.9760000109672546,9.633999824523926,-0.6600000262260437
1558057747167,1.0529999732971191,9.54800033569336,-0.8899999856948853
1558057747187,1.0240000486373901,9.529000282287598,-0.5170000195503235
1558057747210,0.9860000014305115,9.538000106811523,-0.7080000042915344
1558057748015,1.0149999856948853,9.633999824523926,-0.8140000104904175
1558057748016,1.0149999856948853,9.633999824523926,-0.8140000104904175
1558057748018,0.8899999856948853,9.595999717712402,-0.7369999885559082
1558057748084,1.034000039100647,9.57699966430664,-0.6600000262260437
1558057748235,0.9860000014305115,9.510000228881836,-0.7179999947547913
1558057748349,1.090999960899353,9.595999717712402,-0.4880000054836273
1558057748417,1.062999963760376,9.567000389099121,-0.6990000009536743
1558057748557,0.8709999918937683,9.557000160217285,-0.7080000042915344
1558057748626,0.9190000295639038,9.625,-0.5450000166893005
1558057748678,0.9380000233650208,9.595999717712402,-0.6890000104904175
1558057748744,0.9570000171661377,9.644000053405762,-0.5929999947547913
1558057748881,0.9190000295639038,9.567000389099121,-0.6320000290870667
1558057748951,0.9760000109672546,9.567000389099121,-0.6600000262260437
1558057749010,0.9190000295639038,9.519000053405762,-0.5929999947547913
1558057749074,0.9480000138282776,9.692000389099121,-0.5070000290870667
1558057749160,1.034000039100647,9.625,-0.2770000100135803
1558057749210,1.1490000486373901,9.595999717712402,-0.4300000071525574
1558057749404,0.8809999823570251,9.633999824523926,-0.5170000195503235
1558057749483,1.0149999856948853,9.567000389099121,-0.4779999852180481
1558057749552,0.9670000076293945,9.595999717712402,-0.5740000009536743
1558057749736,1.1200000047683716,9.470999717712402,-0.9190000295639038
1558057749805,1.090999960899353,9.682000160217285,-0.29600000381469727
1558057749932,0.8899999856948853,9.595999717712402,0.04699999839067459
1558057749998,1.0429999828338623,9.682000160217285,-0.1809999942779541
1558057750142,1.3209999799728394,9.633999824523926,-0.06700000166893005
1558057750196,1.378999948501587,9.538000106811523,-0.1340000033378601
1558057750400,1.0149999856948853,9.604999542236328,-0.02800000086426735
1558057750471,0.8230000138282776,9.767999649047852,0.28700000047683716
1558057750526,1.0049999952316284,9.595999717712402,-0.0860000029206276
1558057750662,0.9480000138282776,9.625,0.04699999839067459
1558057750733,1.0429999828338623,9.644000053405762,-0.257999986410141
1558057750803,1.1200000047683716,9.652999877929688,-0.06700000166893005
1558057750856,1.090999960899353,9.682000160217285,-0.12399999797344208
1558057750922,1.0240000486373901,9.625,0.0
1558057750992,1.1299999952316284,9.567000389099121,-0.0860000029206276
1558057751062,1.062999963760376,9.644000053405762,-0.20100000500679016
1558057751133,1.1200000047683716,9.604999542236328,-0.20999999344348907
1558057751186,0.9760000109672546,9.604999542236328,-0.24899999797344208
1558057751252,1.0429999828338623,9.644000053405762,-0.12399999797344208
1558057751321,1.1009999513626099,9.54800033569336,0.02800000086426735
1558057751404,1.2059999704360962,9.57699966430664,-0.0949999988079071
1558057751451,1.1770000457763672,9.644000053405762,0.11400000005960464
1558057751522,1.225000023841858,9.595999717712402,-0.0949999988079071
1558057751664,1.062999963760376,9.652999877929688,-0.06700000166893005
1558057751718,0.9860000014305115,9.595999717712402,-0.1340000033378601
1558057751783,0.9190000295639038,9.614999771118164,-0.1720000058412552
1558057751912,0.7179999947547913,9.595999717712402,-0.04699999839067459
1558057752045,0.7179999947547913,9.567000389099121,0.16200000047683716
1558057752123,0.7749999761581421,9.644000053405762,0.20100000500679016
1558057752176,0.7940000295639038,9.652999877929688,-0.06700000166893005
1558057752251,0.7940000295639038,9.633999824523926,0.0
1558057752327,0.7749999761581421,9.604999542236328,0.0
1558057752376,0.8330000042915344,9.652999877929688,0.0949999988079071
1558057752450,0.8330000042915344,9.692000389099121,0.1340000033378601
1558057752506,0.8519999980926514,9.67199993133545,0.01899999938905239
1558057752572,0.8709999918937683,9.644000053405762,0.06700000166893005
1558057752645,0.8140000104904175,9.595999717712402,0.1720000058412552
1558057752719,0.8610000014305115,9.682000160217285,0.1720000058412552
1558057752774,0.8330000042915344,9.682000160217285,0.20100000500679016
1558057752841,0.8999999761581421,9.701000213623047,0.11400000005960464
1558057752910,0.8899999856948853,9.567000389099121,0.11400000005960464
1558057752981,0.8519999980926514,9.567000389099121,-0.01899999938905239
1558057753034,0.7749999761581421,9.652999877929688,0.06700000166893005
1558057753101,0.8809999823570251,9.652999877929688,-0.20100000500679016
1558057753174,0.8330000042915344,9.595999717712402,-0.1340000033378601
1558057753317,0.8999999761581421,9.652999877929688,-0.06700000166893005
1558057753367,0.8330000042915344,9.682000160217285,-0.2770000100135803
1558057753438,0.8610000014305115,9.604999542236328,-0.11400000005960464
1558057753496,0.8140000104904175,9.663000106811523,-0.06700000166893005
1558057753562,0.8610000014305115,9.652999877929688,-0.12399999797344208
1558057753629,0.8610000014305115,9.652999877929688,-0.16200000047683716
1558057753703,0.8709999918937683,9.595999717712402,-0.04699999839067459
1558057753760,0.8420000076293945,9.652999877929688,-0.06700000166893005
1558057753826,0.8230000138282776,9.644000053405762,-0.0860000029206276
1558057753899,0.7749999761581421,9.652999877929688,-0.0949999988079071
1558057753973,0.8230000138282776,9.682000160217285,-0.06700000166893005
1558057754024,0.8040000200271606,9.701000213623047,-0.05700000002980232
1558057754095,0.8899999856948853,9.614999771118164,-0.11400000005960464
1558057754156,0.8610000014305115,9.614999771118164,-0.11400000005960464
1558057754244,0.8040000200271606,9.652999877929688,-0.24899999797344208
1558057754295,0.8040000200271606,9.57699966430664,-0.14300000667572021
1558057754486,0.8519999980926514,9.652999877929688,0.0
1558057754553,0.7749999761581421,9.633999824523926,-0.1809999942779541
1558057754695,0.8140000104904175,9.663000106811523,-0.0860000029206276
1558057754750,0.8519999980926514,9.614999771118164,-0.0949999988079071
1558057754816,0.8040000200271606,9.644000053405762,0.0
1558057754884,0.8140000104904175,9.625,-0.0949999988079071
1558057754956,0.8330000042915344,9.652999877929688,-0.16200000047683716
1558057755028,0.8420000076293945,9.625,0.0949999988079071
1558057755152,0.8230000138282776,9.663000106811523,-0.02800000086426735
1558057755286,0.8140000104904175,9.633999824523926,-0.11400000005960464
1558057755410,0.8899999856948853,9.682000160217285,0.20100000500679016
1558057755554,0.8330000042915344,9.604999542236328,-0.01899999938905239
1558057755682,0.8709999918937683,9.67199993133545,0.06700000166893005
1558057755740,0.8809999823570251,9.652999877929688,0.0860000029206276
1558057755807,0.9190000295639038,9.604999542236328,0.257999986410141
1558057755880,0.8140000104904175,9.625,0.0860000029206276
1558057755955,0.9190000295639038,9.652999877929688,0.2290000021457672
1558057756006,0.8420000076293945,9.652999877929688,0.1340000033378601
1558057756078,0.8709999918937683,9.652999877929688,0.2290000021457672
1558057756147,0.8330000042915344,9.652999877929688,0.0949999988079071
1558057756220,0.8709999918937683,9.652999877929688,0.1809999942779541
1558057756342,0.8809999823570251,9.595999717712402,0.1340000033378601
1558057756400,0.8610000014305115,9.701000213623047,0.28700000047683716
1558057756485,0.8420000076293945,9.595999717712402,0.20100000500679016
1558057756534,0.8519999980926514,9.614999771118164,0.28700000047683716
1558057756609,0.8519999980926514,9.614999771118164,0.20100000500679016
1558057756683,0.7749999761581421,9.652999877929688,0.20999999344348907
1558057756733,0.8330000042915344,9.586000442504883,0.1809999942779541
1558057756809,0.8140000104904175,9.682000160217285,0.24899999797344208
1558057756863,0.8709999918937683,9.595999717712402,0.4779999852180481
1558057756941,0.8330000042915344,9.682000160217285,0.20999999344348907
1558057757060,0.8330000042915344,9.644000053405762,0.20100000500679016
1558057757147,0.8040000200271606,9.652999877929688,0.24899999797344208
1558057757199,0.7749999761581421,9.614999771118164,0.2290000021457672
1558057757258,0.7940000295639038,9.652999877929688,0.1340000033378601
1558057757390,0.8040000200271606,9.682000160217285,0.3440000116825104
1558057757456,0.7940000295639038,9.614999771118164,0.1809999942779541
1558057757533,0.7749999761581421,9.625,0.29600000381469727
1558057757589,0.8040000200271606,9.614999771118164,0.24899999797344208
1558057757802,0.765999972820282,9.682000160217285,0.3440000116825104
1558057757921,0.8040000200271606,9.652999877929688,0.28700000047683716
1558057757986,0.7559999823570251,9.633999824523926,0.4020000100135803
1558057758073,0.7749999761581421,9.652999877929688,0.2770000100135803
1558057758123,0.8230000138282776,9.625,0.1809999942779541
1558057758198,0.8330000042915344,9.633999824523926,0.4880000054836273
1558057758249,0.7749999761581421,9.567000389099121,0.4399999976158142
1558057758322,0.7749999761581421,9.67199993133545,0.9480000138282776
1558057758397,0.8040000200271606,9.614999771118164,0.6890000104904175
1558057758449,0.7369999885559082,9.682000160217285,0.8519999980926514
1558057758523,0.7749999761581421,9.567000389099121,0.746999979019165
1558057758578,0.8330000042915344,9.625,0.8230000138282776
1558057758650,0.8420000076293945,9.604999542236328,0.746999979019165
1558057758726,0.9190000295639038,9.644000053405762,0.8330000042915344
1558057758854,0.8230000138282776,9.595999717712402,0.8899999856948853
1558057758983,0.8330000042915344,9.644000053405762,0.6890000104904175
1558057759057,0.8899999856948853,9.652999877929688,0.7749999761581421
1558057759108,0.9089999794960022,9.614999771118164,0.8040000200271606
1558057759186,0.8610000014305115,9.644000053405762,0.4020000100135803
1558057759311,0.8899999856948853,9.529000282287598,0.1720000058412552
1558057759386,0.7269999980926514,9.652999877929688,0.257999986410141
1558057759508,0.8420000076293945,9.652999877929688,-0.04699999839067459
1558057759658,0.7749999761581421,9.652999877929688,-0.20999999344348907
1558057759709,0.8610000014305115,9.625,-0.23899999260902405
1558057759838,0.8230000138282776,9.682000160217285,-0.20999999344348907
1558057759898,0.8420000076293945,9.786999702453613,0.0
1558057759972,0.8040000200271606,9.557000160217285,-0.37299999594688416
1558057760052,0.9190000295639038,9.595999717712402,-0.1809999942779541
1558057760162,0.9959999918937683,9.595999717712402,-0.1809999942779541
1558057760234,0.8709999918937683,9.604999542236328,-0.2290000021457672
1558057760315,0.9089999794960022,9.652999877929688,-0.14300000667572021
1558057760369,0.8519999980926514,9.633999824523926,-0.1720000058412552
1558057760428,0.8809999823570251,9.682000160217285,-0.0949999988079071
1558057760558,0.7940000295639038,9.652999877929688,-0.11400000005960464
1558057760636,0.7749999761581421,9.595999717712402,-0.16200000047683716
1558057760691,0.8519999980926514,9.567000389099121,-0.1720000058412552
1558057760768,0.8610000014305115,9.644000053405762,-0.0860000029206276
1558057760896,0.8809999823570251,9.595999717712402,-0.1809999942779541
1558057760973,0.8330000042915344,9.652999877929688,-0.05700000002980232
1558057761025,0.8899999856948853,9.644000053405762,-0.06700000166893005
1558057761153,0.9760000109672546,9.5,0.4399999976158142
1558057761288,0.8519999980926514,9.625,-0.23899999260902405
1558057761359,0.8809999823570251,9.682000160217285,-0.20999999344348907
1558057761417,0.8610000014305115,9.614999771118164,-0.2770000100135803
1558057761491,0.8519999980926514,9.644000053405762,-0.14300000667572021
1558057761571,0.8330000042915344,9.595999717712402,-0.20100000500679016
1558057761622,0.8709999918937683,9.595999717712402,-0.20999999344348907
1558057761680,0.8420000076293945,9.652999877929688,-0.23899999260902405
1558057761755,0.8420000076293945,9.54800033569336,-0.20999999344348907
1558057761812,0.8330000042915344,9.644000053405762,-0.2290000021457672
1558057761890,0.9190000295639038,9.682000160217285,-0.20100000500679016
1558057761944,0.9760000109672546,9.652999877929688,-0.1809999942779541
1558057762020,0.8709999918937683,9.692000389099121,0.04699999839067459
1558057762076,0.9190000295639038,9.633999824523926,-0.32499998807907104
1558057762234,0.8420000076293945,9.625,-0.29600000381469727
1558057762287,0.9190000295639038,9.767999649047852,-0.20100000500679016
1558057762341,0.9380000233650208,9.57699966430664,-0.5070000290870667
1558057762417,0.8899999856948853,9.663000106811523,-0.29600000381469727
1558057762494,0.8519999980926514,9.54800033569336,-0.1720000058412552
1558057762548,0.9089999794960022,9.644000053405762,-0.257999986410141
1558057762604,0.8519999980926514,9.633999824523926,-0.0949999988079071
1558057762680,0.9380000233650208,9.663000106811523,-0.06700000166893005
1558057762738,0.9190000295639038,9.652999877929688,0.0
1558057762885,0.8899999856948853,9.633999824523926,-0.04699999839067459
1558057763010,0.9959999918937683,9.567000389099121,0.20100000500679016
1558057763066,0.9480000138282776,9.633999824523926,0.11400000005960464
1558057763141,1.0049999952316284,9.557000160217285,0.20999999344348907
1558057763220,0.9480000138282776,9.625,0.4779999852180481
1558057763273,0.9190000295639038,9.633999824523926,0.3630000054836273
1558057763331,0.9190000295639038,9.644000053405762,0.4020000100135803
1558057763396,0.9670000076293945,9.604999542236328,0.41100001335144043
1558057763548,0.6990000009536743,9.815999984741211,0.7369999885559082
1558057763600,1.0820000171661377,9.567000389099121,0.3919999897480011
1558057763660,1.062999963760376,9.701000213623047,0.621999979019165
1558057763738,1.0049999952316284,9.633999824523926,0.5170000195503235
1558057763792,0.9480000138282776,9.633999824523926,0.6600000262260437
1558057763870,1.0149999856948853,9.633999824523926,0.5550000071525574
1558057764002,0.9860000014305115,9.586000442504883,0.6600000262260437
1558057764057,0.9959999918937683,9.614999771118164,0.746999979019165
1558057764133,0.9959999918937683,9.633999824523926,0.621999979019165
1558057764188,1.0240000486373901,9.633999824523926,0.621999979019165
1558057764260,0.9760000109672546,9.614999771118164,0.6320000290870667
1558057764320,0.9670000076293945,9.633999824523926,0.6600000262260437
1558057764471,0.9480000138282776,9.614999771118164,0.6700000166893005
1558057764526,0.9480000138282776,9.595999717712402,0.621999979019165
1558057764584,0.9670000076293945,9.67199993133545,0.5450000166893005
1558057764659,0.9670000076293945,9.644000053405762,0.6890000104904175
1558057764853,0.8899999856948853,9.652999877929688,0.5450000166893005
1558057764914,0.9190000295639038,9.633999824523926,0.6029999852180481
1558057764987,0.9190000295639038,9.644000053405762,0.6320000290870667
1558057765070,0.9760000109672546,9.652999877929688,0.4779999852180481
1558057765124,0.9480000138282776,9.644000053405762,0.4300000071525574
1558057765180,0.8809999823570251,9.625,0.3440000116825104
1558057765244,0.9480000138282776,9.633999824523926,0.4779999852180481
1558057765320,0.9760000109672546,9.595999717712402,0.5170000195503235
1558057765402,1.034000039100647,9.625,0.3919999897480011
1558057765456,0.9959999918937683,9.633999824523926,0.32499998807907104
1558057765574,0.9190000295639038,9.682000160217285,0.257999986410141
1558057765646,0.9860000014305115,9.633999824523926,0.4300000071525574
1558057765727,0.9089999794960022,9.625,0.11400000005960464
1558057765779,0.9760000109672546,9.644000053405762,0.1809999942779541
1558057765838,0.9480000138282776,9.595999717712402,0.1720000058412552
1558057765908,0.9190000295639038,9.720000267028809,0.1809999942779541
1558057765970,0.9959999918937683,9.595999717712402,0.0949999988079071
1558057766040,0.9570000171661377,9.633999824523926,0.0
1558057766123,0.9570000171661377,9.595999717712402,0.06700000166893005
1558057766179,0.9380000233650208,9.682000160217285,0.1340000033378601
1558057766236,0.6790000200271606,9.644000053405762,-0.0949999988079071
1558057766300,1.0240000486373901,9.692000389099121,-0.14300000667572021
1558057766434,0.8899999856948853,9.625,-0.11400000005960464
1558057766630,0.9670000076293945,9.644000053405762,-0.14300000667572021
1558057766697,0.9760000109672546,9.604999542236328,-0.0949999988079071
1558057766762,0.9480000138282776,9.625,-0.04699999839067459
1558057766828,0.9760000109672546,9.54800033569336,-0.12399999797344208
1558057766895,1.0049999952316284,9.604999542236328,-0.11400000005960464
1558057766960,1.1009999513626099,9.604999542236328,-0.06700000166893005
1558057767038,0.9959999918937683,9.57699966430664,-0.0949999988079071
1558057767098,0.9760000109672546,9.644000053405762,-0.01899999938905239
1558057767226,0.9760000109672546,9.652999877929688,-0.1340000033378601
1558057767368,1.0149999856948853,9.652999877929688,-0.0860000029206276
1558057767429,1.0429999828338623,9.633999824523926,0.0
1558057767491,0.9760000109672546,9.625,0.02800000086426735
1558057767556,0.9670000076293945,9.633999824523926,-0.04699999839067459
1558057767631,1.0049999952316284,9.652999877929688,-0.05700000002980232
1558057767690,1.0820000171661377,9.625,-0.04699999839067459
1558057767756,0.9670000076293945,9.604999542236328,-0.11400000005960464
1558057767823,0.9860000014305115,9.633999824523926,-0.12399999797344208
1558057767891,1.0149999856948853,9.625,-0.14300000667572021
1558057768021,0.9860000014305115,9.604999542236328,-0.05700000002980232
1558057768086,0.9860000014305115,9.625,-0.0860000029206276
1558057768152,0.9480000138282776,9.595999717712402,-0.14300000667572021
1558057768218,0.9480000138282776,9.625,-0.1720000058412552
1558057768282,0.9860000014305115,9.644000053405762,-0.04699999839067459
1558057768347,1.0149999856948853,9.652999877929688,-0.2290000021457672
1558057768415,0.9860000014305115,9.567000389099121,-0.12399999797344208
1558057768480,0.9480000138282776,9.644000053405762,0.0
1558057768545,1.0049999952316284,9.663000106811523,-0.05700000002980232
1558057768610,0.9190000295639038,9.682000160217285,0.04699999839067459
1558057768808,1.034000039100647,9.595999717712402,0.0860000029206276
1558057768874,1.0240000486373901,9.625,0.11400000005960464
1558057768953,0.9760000109672546,9.711000442504883,0.2290000021457672
1558057769019,0.9860000014305115,9.786999702453613,0.2290000021457672
1558057769083,1.062999963760376,9.652999877929688,0.4880000054836273
1558057769138,1.0240000486373901,9.604999542236328,0.5070000290870667
1558057769213,0.9860000014305115,9.625,0.3160000145435333
1558057769280,1.0820000171661377,9.625,0.4399999976158142
1558057769348,1.090999960899353,9.567000389099121,0.5170000195503235
1558057769402,1.090999960899353,9.567000389099121,0.6029999852180481
1558057769468,1.0149999856948853,9.682000160217285,0.7369999885559082
1558057769547,1.1200000047683716,9.595999717712402,0.7080000042915344
1558057769612,1.0429999828338623,9.604999542236328,0.621999979019165
1558057769680,1.0820000171661377,9.567000389099121,0.6700000166893005
1558057769798,1.034000039100647,9.595999717712402,0.6320000290870667
1558057769878,1.0049999952316284,9.633999824523926,0.5740000009536743
1558057769930,1.0529999732971191,9.633999824523926,0.6029999852180481
1558057770194,1.062999963760376,9.652999877929688,0.5929999947547913
1558057770260,1.0529999732971191,9.633999824523926,0.621999979019165
1558057770326,1.0529999732971191,9.625,0.5740000009536743
1558057770393,1.0240000486373901,9.595999717712402,0.5929999947547913
1558057770524,1.0240000486373901,9.567000389099121,0.6890000104904175
1558057770659,1.1200000047683716,9.557000160217285,0.6029999852180481
1558057770855,1.0240000486373901,9.682000160217285,0.621999979019165
1558057770920,0.9959999918937683,9.67199993133545,0.5740000009536743
1558057770986,0.9760000109672546,9.652999877929688,0.5740000009536743
1558057771122,1.0240000486373901,9.586000442504883,0.3630000054836273
1558057771250,1.0429999828338623,9.682000160217285,0.4880000054836273
1558057771515,1.062999963760376,9.595999717712402,0.4300000071525574
1558057771580,1.0149999856948853,9.644000053405762,0.3440000116825104
1558057771844,1.1490000486373901,9.644000053405762,0.4880000054836273
1558057771977,1.0529999732971191,9.652999877929688,0.4020000100135803
1558057772042,0.8899999856948853,9.614999771118164,0.257999986410141
1558057772242,1.034000039100647,9.604999542236328,0.1720000058412552
1558057772306,1.0049999952316284,9.595999717712402,0.16200000047683716
1558057772440,1.1009999513626099,9.595999717712402,0.1809999942779541
1558057772570,0.9860000014305115,9.567000389099121,0.06700000166893005
1558057772834,1.062999963760376,9.614999771118164,0.0949999988079071
1558057772903,1.0240000486373901,9.633999824523926,0.01899999938905239
1558057773036,1.1009999513626099,9.586000442504883,0.06700000166893005
1558057773098,1.034000039100647,9.633999824523926,-0.0860000029206276
1558057773164,1.062999963760376,9.682000160217285,0.06700000166893005
1558057773296,1.0049999952316284,9.595999717712402,0.0
1558057773363,1.090999960899353,9.644000053405762,0.14300000667572021
1558057773428,0.9959999918937683,9.614999771118164,0.0
1558057773560,1.0820000171661377,9.586000442504883,0.05700000002980232
1558057773693,1.0529999732971191,9.614999771118164,-0.04699999839067459
1558057773956,1.0820000171661377,9.633999824523926,-0.0860000029206276
1558057774023,1.0149999856948853,9.644000053405762,0.06700000166893005
1558057774088,1.0820000171661377,9.652999877929688,-0.04699999839067459
1558057774220,0.9959999918937683,9.625,-0.14300000667572021
1558057774286,1.0240000486373901,9.633999824523926,-0.16200000047683716
1558057774353,1.0149999856948853,9.663000106811523,-0.0949999988079071
1558057774422,1.034000039100647,9.633999824523926,-0.0860000029206276
1558057774683,1.0149999856948853,9.644000053405762,-0.06700000166893005
1558057774749,1.034000039100647,9.663000106811523,0.0
1558057774880,0.9860000014305115,9.604999542236328,-0.0860000029206276
1558057774950,1.0049999952316284,9.682000160217285,-0.01899999938905239
1558057775013,1.062999963760376,9.652999877929688,0.0
1558057775144,1.034000039100647,9.614999771118164,-0.02800000086426735
1558057775277,1.0149999856948853,9.567000389099121,0.01899999938905239
1558057775414,0.9860000014305115,9.644000053405762,-0.02800000086426735
1558057775474,1.0049999952316284,9.633999824523926,0.0
1558057775673,1.0149999856948853,9.644000053405762,-0.0860000029206276
1558057775738,1.0149999856948853,9.614999771118164,-0.0860000029206276
1558057775938,1.1299999952316284,9.595999717712402,-0.11400000005960464
1558057776006,1.034000039100647,9.644000053405762,-0.06700000166893005
1558057776134,1.0149999856948853,9.595999717712402,-0.01899999938905239
1558057776268,1.253999948501587,9.595999717712402,-0.4880000054836273
1558057776464,1.0240000486373901,9.567000389099121,-0.11400000005960464
1558057776534,0.9670000076293945,9.692000389099121,-0.0949999988079071
1558057776666,1.0149999856948853,9.644000053405762,-0.1809999942779541
1558057776728,0.9860000014305115,9.644000053405762,-0.11400000005960464
1558057776995,0.9380000233650208,9.682000160217285,-0.4020000100135803
1558057777124,1.0529999732971191,9.595999717712402,-0.4399999976158142
1558057777194,0.8040000200271606,9.663000106811523,-0.45899999141693115
1558057777522,0.9670000076293945,9.701000213623047,-0.6600000262260437
1558057777591,1.0049999952316284,9.701000213623047,-0.7080000042915344
1558057777916,1.1390000581741333,9.633999824523926,-0.6320000290870667
1558057778048,0.9860000014305115,9.557000160217285,-0.6700000166893005
1558057778114,0.9760000109672546,9.652999877929688,-0.6890000104904175
1558057778248,0.9570000171661377,9.595999717712402,-0.621999979019165
1558057778312,0.9480000138282776,9.614999771118164,-0.5360000133514404
1558057778511,0.9760000109672546,9.595999717712402,-0.746999979019165
1558057778642,0.8999999761581421,9.595999717712402,-0.6890000104904175
1558057778708,0.8809999823570251,9.614999771118164,-0.6700000166893005
1558057778779,0.9089999794960022,9.644000053405762,-0.5550000071525574
1558057778840,0.9190000295639038,9.57699966430664,-0.6029999852180481
1558057778907,0.9760000109672546,9.54800033569336,-0.621999979019165
1558057779106,0.9860000014305115,9.595999717712402,-0.6600000262260437
1558057779171,0.9760000109672546,9.595999717712402,-0.5170000195503235
1558057779236,0.9480000138282776,9.567000389099121,-0.5170000195503235
1558057779368,0.9570000171661377,9.614999771118164,-0.4399999976158142
1558057779434,0.9670000076293945,9.652999877929688,-0.4779999852180481
1558057779632,0.9670000076293945,9.663000106811523,-0.4880000054836273
1558057779698,0.8140000104904175,9.567000389099121,-0.7179999947547913
1558057779766,0.8809999823570251,9.529000282287598,-0.6510000228881836
1558057780098,0.9380000233650208,9.567000389099121,-0.7179999947547913
1558057780160,1.0049999952316284,9.595999717712402,-0.8230000138282776
1558057780226,1.090999960899353,9.567000389099121,-0.5550000071525574
1558057780358,1.0240000486373901,9.567000389099121,-0.5740000009536743
1558057780429,1.090999960899353,9.625,-0.6510000228881836
1558057780491,1.1770000457763672,9.663000106811523,-0.37299999594688416
1558057780688,1.0429999828338623,9.57699966430664,-0.3540000021457672
1558057780755,1.0429999828338623,9.567000389099121,-0.32499998807907104
1558057780820,1.1200000047683716,9.682000160217285,-0.3540000021457672
1558057780952,1.0429999828338623,9.614999771118164,-0.28700000047683716
1558057781020,1.0529999732971191,9.595999717712402,-0.3440000116825104
1558057781216,1.062999963760376,9.604999542236328,-0.45899999141693115
1558057781282,1.034000039100647,9.633999824523926,-0.4779999852180481
1558057781480,0.9959999918937683,9.652999877929688,-0.5839999914169312
1558057781679,1.1490000486373901,9.604999542236328,-0.3540000021457672
1558057782206,1.062999963760376,9.644000053405762,-0.5070000290870667
1558057782342,0.9670000076293945,9.682000160217285,-0.5360000133514404
1558057782470,0.9959999918937683,9.625,-0.5550000071525574
1558057782536,1.0529999732971191,9.633999824523926,-0.5450000166893005
1558057782605,1.062999963760376,9.595999717712402,-0.6320000290870667
1558057782801,1.062999963760376,9.595999717712402,-0.4779999852180481
1558057782866,1.0820000171661377,9.595999717712402,-0.4779999852180481
1558057782934,1.034000039100647,9.567000389099121,-0.5550000071525574
1558057782999,1.0049999952316284,9.614999771118164,-0.746999979019165
1558057783064,1.1770000457763672,9.729999542236328,-0.4880000054836273
1558057783130,1.1200000047683716,9.644000053405762,-0.5839999914169312
1558057783328,1.0049999952316284,9.567000389099121,-0.6029999852180481
1558057783395,1.1299999952316284,9.644000053405762,-0.45899999141693115
1558057783460,1.0820000171661377,9.614999771118164,-0.4779999852180481
1558057783594,1.0529999732971191,9.595999717712402,-0.29600000381469727
1558057783658,1.1200000047683716,9.633999824523926,-0.37299999594688416
1558057783790,1.062999963760376,9.604999542236328,-0.32499998807907104
1558057783856,1.0429999828338623,9.595999717712402,-0.3540000021457672
1558057783923,1.1009999513626099,9.595999717712402,-0.3630000054836273
1558057784054,1.090999960899353,9.595999717712402,-0.37299999594688416
1558057784120,1.1679999828338623,9.595999717712402,-0.3540000021457672
1558057784256,1.1970000267028809,9.644000053405762,-0.3919999897480011
1558057784318,0.9670000076293945,9.557000160217285,-0.621999979019165
1558057784385,0.8040000200271606,9.510000228881836,-0.6600000262260437
1558057784450,0.7369999885559082,9.614999771118164,-0.8330000042915344
1558057784521,1.1970000267028809,9.595999717712402,-1.378999948501587
1558057784582,1.1490000486373901,9.595999717712402,-0.5170000195503235
1558057784649,1.1200000047683716,9.567000389099121,-0.6510000228881836
1558057784780,1.0820000171661377,9.644000053405762,-0.5070000290870667
1558057784914,1.0529999732971191,9.489999771118164,-0.5360000133514404
1558057784983,1.1009999513626099,9.595999717712402,-0.6029999852180481
1558057785110,1.1679999828338623,9.529000282287598,-0.45899999141693115
1558057785215,1.1009999513626099,9.652999877929688,-0.4880000054836273
1558057785286,1.1200000047683716,9.595999717712402,-0.5360000133514404
1558057785375,1.1390000581741333,9.57699966430664,-0.4300000071525574
1558057785675,1.1770000457763672,9.625,-0.3440000116825104
1558057786035,1.1970000267028809,9.57699966430664,-0.20999999344348907
1558057786166,1.1299999952316284,9.557000160217285,-0.3919999897480011
1558057786233,1.1679999828338623,9.625,-0.3160000145435333
1558057786298,1.225000023841858,9.57699966430664,-0.3440000116825104
1558057786366,1.2059999704360962,9.614999771118164,-0.0949999988079071
1558057786431,1.1490000486373901,9.633999824523926,-0.1720000058412552
1558057786497,1.1200000047683716,9.595999717712402,-0.2290000021457672
1558057786696,1.1490000486373901,9.614999771118164,-0.32499998807907104
1558057786761,1.1390000581741333,9.567000389099121,-0.1809999942779541
1558057786827,1.1390000581741333,9.604999542236328,-0.23899999260902405
1558057786893,1.187000036239624,9.510000228881836,-0.24899999797344208
1558057786959,1.1299999952316284,9.652999877929688,-0.24899999797344208
1558057787025,1.2059999704360962,9.567000389099121,-0.32499998807907104
1558057787091,1.1490000486373901,9.644000053405762,-0.2290000021457672
1558057787157,1.090999960899353,9.595999717712402,-0.3160000145435333
1558057787289,1.1579999923706055,9.595999717712402,-0.1809999942779541
1558057787486,1.1770000457763672,9.57699966430664,-0.3540000021457672
1558057787552,1.1299999952316284,9.614999771118164,-0.4300000071525574
1558057787618,1.187000036239624,9.595999717712402,-0.3630000054836273
1558057787816,1.090999960899353,9.604999542236328,-0.4300000071525574
1558057787882,1.062999963760376,9.604999542236328,-0.5450000166893005
1558057787948,1.0149999856948853,9.625,-0.3919999897480011
1558057788014,1.034000039100647,9.604999542236328,-0.3540000021457672
1558057788081,1.062999963760376,9.595999717712402,-0.4020000100135803
1558057788146,1.0820000171661377,9.625,-0.3919999897480011
1558057788212,1.090999960899353,9.663000106811523,-0.5070000290870667
1558057788278,1.1299999952316284,9.633999824523926,-0.3160000145435333
1558057788345,1.090999960899353,9.529000282287598,-0.3440000116825104
1558057788411,1.0149999856948853,9.625,-0.3540000021457672
1558057788477,1.0049999952316284,9.701000213623047,-0.32499998807907104
1558057788609,1.034000039100647,9.595999717712402,-0.5170000195503235
1558057788939,0.9480000138282776,9.54800033569336,-0.3160000145435333
1558057789071,1.1100000143051147,9.633999824523926,-0.5839999914169312
1558057789137,1.062999963760376,9.595999717712402,-0.4880000054836273
1558057789203,1.090999960899353,9.595999717712402,-0.5740000009536743
1558057789269,1.1679999828338623,9.595999717712402,-0.4779999852180481
1558057789533,1.034000039100647,9.633999824523926,-0.4020000100135803
1558057789731,1.1390000581741333,9.595999717712402,-0.4690000116825104
1558057789797,1.1579999923706055,9.614999771118164,-0.3919999897480011
1558057789862,1.1390000581741333,9.595999717712402,-0.4399999976158142
1558057789929,1.1579999923706055,9.57699966430664,-0.3919999897480011
1558057790127,1.090999960899353,9.595999717712402,-0.29600000381469727
1558057790193,1.1200000047683716,9.625,-0.23899999260902405
1558057790259,1.1100000143051147,9.625,-0.257999986410141
1558057790325,1.0240000486373901,9.557000160217285,-0.3440000116825104
1558057790391,1.090999960899353,9.595999717712402,-0.1809999942779541
1558057790456,1.1009999513626099,9.652999877929688,-0.2290000021457672
1558057790589,1.090999960899353,9.625,-0.3440000116825104
1558057790655,1.1200000047683716,9.519000053405762,-0.32499998807907104
1558057790721,1.0820000171661377,9.604999542236328,-0.257999986410141
1558057790788,1.0529999732971191,9.625,-0.3160000145435333
1558057790984,1.034000039100647,9.595999717712402,-0.20100000500679016
1558057791050,1.034000039100647,9.625,-0.32499998807907104
1558057791850,1.1970000267028809,9.614999771118164,-0.23899999260902405
1558057791909,1.090999960899353,9.663000106811523,-0.20100000500679016
1558057791975,1.187000036239624,9.45199966430664,-0.5360000133514404
1558057792041,1.1009999513626099,9.595999717712402,-0.3630000054836273
1558057792107,1.1100000143051147,9.911999702453613,-0.4399999976158142
1558057792173,0.7559999823570251,9.595999717712402,-1.034000039100647
1558057792239,1.2450000047683716,9.45199966430664,-0.8899999856948853
1558057792371,1.3309999704360962,9.711000442504883,-0.5550000071525574
1558057821006,1.1009999513626099,9.470999717712402,-0.8999999761581421
1558057821072,0.9760000109672546,9.510000228881836,-0.7749999761581421
1558057821270,1.187000036239624,9.480999946594238,-0.9670000076293945
1558057821402,1.0820000171661377,9.510000228881836,-0.9760000109672546
1558057821468,1.1100000143051147,9.538000106811523,-0.9279999732971191
1558057821666,1.1009999513626099,9.510000228881836,-0.8230000138282776
1558057821798,1.3309999704360962,9.529000282287598,-0.7749999761581421
1558057821864,1.350000023841858,9.538000106811523,-0.5450000166893005
1558057821930,1.225000023841858,9.529000282287598,-0.7179999947547913
1558057821996,1.2829999923706055,9.54800033569336,-0.7179999947547913
1558057822062,1.2730000019073486,9.395000457763672,-0.7850000262260437
1558057831093,0.9380000233650208,9.519000053405762,-0.8140000104904175
1558057831159,1.1770000457763672,9.404000282287598,-0.8899999856948853
1558057831225,1.1299999952316284,9.604999542236328,-1.0820000171661377
1558057831424,0.9860000014305115,9.366000175476074,-0.7080000042915344
1558057831489,1.034000039100647,9.567000389099121,-0.6600000262260437
1558057831555,1.1970000267028809,9.54800033569336,-0.7179999947547913
1558057831621,1.340000033378601,9.480999946594238,-0.9480000138282776
1558057831687,1.2730000019073486,9.595999717712402,-0.7080000042915344
1558057831753,1.225000023841858,9.633999824523926,-0.765999972820282
1558057831885,1.312000036239624,9.595999717712402,-0.6990000009536743
1558057831951,1.1200000047683716,9.557000160217285,-0.7179999947547913
1558057832017,1.3209999799728394,9.480999946594238,-0.8610000014305115
1558057832083,1.2350000143051147,9.442999839782715,-0.7749999761581421
1558057832149,1.1200000047683716,9.529000282287598,-0.7749999761581421
1558057833659,1.1770000457763672,9.567000389099121,-0.5740000009536743
1558057833791,1.0820000171661377,9.538000106811523,-0.5360000133514404
1558057833989,1.090999960899353,9.567000389099121,-0.3540000021457672
1558057834186,1.1009999513626099,9.595999717712402,-0.3160000145435333
1558057834517,1.0429999828338623,9.529000282287598,-0.5550000071525574
1558057834583,1.062999963760376,9.604999542236328,-0.45899999141693115
1558057834649,1.062999963760376,9.510000228881836,-0.45899999141693115
1558057834715,1.062999963760376,9.529000282287598,-0.4880000054836273
1558057834847,1.1100000143051147,9.567000389099121,-0.45899999141693115
1558057843894,0.9760000109672546,9.567000389099121,-1.0149999856948853
1558057844026,1.0429999828338623,9.529000282287598,-0.7749999761581421
1558057844290,0.9760000109672546,9.529000282287598,-0.9959999918937683
1558057844355,0.9760000109672546,9.510000228881836,-0.9760000109672546
1558057844553,1.0149999856948853,9.529000282287598,-0.9190000295639038
1558057844619,0.9860000014305115,9.480999946594238,-1.034000039100647
1558057844752,1.0240000486373901,9.54800033569336,-1.034000039100647
1558057844817,1.0429999828338623,9.557000160217285,-0.7369999885559082
1558057845136,1.034000039100647,9.470999717712402,-0.765999972820282
1558057845214,1.090999960899353,9.567000389099121,-0.5929999947547913
1558057845280,0.9860000014305115,9.538000106811523,-0.6700000166893005
1558057845412,1.0049999952316284,9.519000053405762,-0.7850000262260437
1558057845543,0.9959999918937683,9.510000228881836,-0.5929999947547913
1558057845609,0.9760000109672546,9.519000053405762,-0.6029999852180481
1558057845741,1.034000039100647,9.538000106811523,-0.6990000009536743
1558057845807,1.0240000486373901,9.480999946594238,-0.6029999852180481
1558057846005,0.9760000109672546,9.54800033569336,-0.5929999947547913
1558057846203,1.0149999856948853,9.510000228881836,-0.6320000290870667
1558057846270,1.090999960899353,9.538000106811523,-0.5839999914169312
1558057846336,1.034000039100647,9.557000160217285,-0.6510000228881836
1558057846534,0.9670000076293945,9.557000160217285,-0.5929999947547913
1558057846600,1.0429999828338623,9.567000389099121,-0.5929999947547913
1558057846666,1.062999963760376,9.510000228881836,-0.6510000228881836
1558057846732,1.0429999828338623,9.510000228881836,-0.7179999947547913
1558057847061,1.034000039100647,9.519000053405762,-0.746999979019165
1558057847127,1.0049999952316284,9.57699966430664,-0.6510000228881836
1558057847193,0.9760000109672546,9.480999946594238,-0.6700000166893005
1558057847325,1.062999963760376,9.510000228881836,-0.621999979019165
1558057847391,1.0529999732971191,9.538000106811523,-0.746999979019165
1558057847457,1.0429999828338623,9.557000160217285,-0.6990000009536743
1558057847787,0.9480000138282776,9.529000282287598,-0.8040000200271606
1558057847853,1.0429999828338623,9.567000389099121,-0.746999979019165
1558057847919,1.062999963760376,9.54800033569336,-0.8040000200271606
1558057848052,0.9959999918937683,9.510000228881836,-0.7179999947547913
1558057848118,1.0149999856948853,9.510000228881836,-0.8899999856948853
1558057848184,0.9959999918937683,9.510000228881836,-0.7369999885559082
1558057848250,1.0820000171661377,9.595999717712402,-0.7850000262260437
1558057848315,0.9959999918937683,9.510000228881836,-0.8899999856948853
1558057848381,1.034000039100647,9.538000106811523,-0.7080000042915344
1558057848447,1.0049999952316284,9.529000282287598,-0.8610000014305115
1558057848514,1.0149999856948853,9.489999771118164,-0.8230000138282776
1558057848646,1.034000039100647,9.510000228881836,-0.6990000009536743
1558057848777,0.9860000014305115,9.567000389099121,-0.6700000166893005
1558057848843,1.0240000486373901,9.519000053405762,-0.6320000290870667
1558057849305,1.0529999732971191,9.54800033569336,-0.5839999914169312
1558057874921,0.8140000104904175,9.538000106811523,-0.32499998807907104
1558057874967,0.8610000014305115,9.567000389099121,-0.2290000021457672
1558057875033,0.9089999794960022,9.595999717712402,-0.1809999942779541
1558057875099,0.8610000014305115,9.625,-0.20999999344348907
1558057875165,0.8330000042915344,9.595999717712402,-0.257999986410141
1558057875429,0.8899999856948853,9.567000389099121,-0.3440000116825104
1558057875495,0.8610000014305115,9.54800033569336,-0.29600000381469727
1558057875759,0.8709999918937683,9.567000389099121,-0.32499998807907104
1558057875982,0.8709999918937683,9.54800033569336,-0.24899999797344208
1558057876089,0.8999999761581421,9.567000389099121,-0.257999986410141
1558057876221,0.8999999761581421,9.557000160217285,-0.20100000500679016
1558057876287,0.8899999856948853,9.567000389099121,-0.3630000054836273
1558057876353,0.8330000042915344,9.567000389099121,-0.29600000381469727
1558057876419,0.8519999980926514,9.557000160217285,-0.23899999260902405
1558057896398,1.9149999618530273,9.395000457763672,0.7850000262260437
1558057896448,1.9149999618530273,9.395000457763672,0.8040000200271606
1558057896713,1.8569999933242798,9.385000228881836,0.8519999980926514
1558057896911,1.8480000495910645,9.385000228881836,0.8040000200271606
1558057896977,2.000999927520752,9.366000175476074,0.9860000014305115
1558057897240,1.8669999837875366,9.395000457763672,0.5740000009536743
1558057897306,1.9149999618530273,9.385000228881836,1.090999960899353
1558057897372,1.9149999618530273,9.604999542236328,0.8040000200271606
1558057897438,1.9049999713897705,9.404000282287598,0.8230000138282776
1558057897504,1.8669999837875366,9.432999610900879,0.6890000104904175
1558057906572,1.7899999618530273,9.470999717712402,0.7559999823570251
1558057906638,1.7899999618530273,9.45199966430664,0.6600000262260437
1558057906704,1.7430000305175781,9.42300033569336,0.7369999885559082
1558057906836,1.781000018119812,9.42300033569336,0.6890000104904175
1558057906902,1.809999942779541,9.442999839782715,0.6320000290870667
1558057906968,1.781000018119812,9.42300033569336,0.6600000262260437
1558057907034,1.7519999742507935,9.470999717712402,0.5450000166893005
1558057907167,1.781000018119812,9.442999839782715,0.8230000138282776
1558057907233,1.7519999742507935,9.432999610900879,0.5740000009536743
1558057907299,1.7430000305175781,9.442999839782715,0.6320000290870667
1558057907430,1.781000018119812,9.45199966430664,0.6320000290870667
1558057907497,1.7039999961853027,9.42300033569336,0.6600000262260437
1558057907563,1.7519999742507935,9.470999717712402,0.6029999852180481
1558057907629,1.7710000276565552,9.432999610900879,0.621999979019165
1558057907695,1.7619999647140503,9.480999946594238,0.6890000104904175
1558057907761,1.781000018119812,9.42300033569336,0.6890000104904175
1558057908619,1.809999942779541,9.395000457763672,0.7369999885559082
1558057908816,1.781000018119812,9.42300033569336,0.7080000042915344
1558057908882,1.819000005722046,9.432999610900879,0.8330000042915344
