timestamp,AccX,AccY,AccZ
1558049774772,-0.3540000021457672,4.059999942779541,8.791000366210938
1558049774913,-0.2680000066757202,4.031000137329102,8.83899974822998
1558049775033,-0.20100000500679016,3.9070000648498535,8.446999549865723
1558049775231,-0.9190000295639038,3.0450000762939453,8.972999572753906
1558049775297,-0.9570000171661377,2.4700000286102295,9.729999542236328
1558049775363,-0.7179999947547913,2.499000072479248,9.317999839782715
1558049775430,0.0,3.0160000324249268,8.560999870300293
1558049775760,1.2829999923706055,5.229000091552734,8.829999923706055
1558049775825,0.6600000262260437,6.196000099182129,8.024999618530273
1558049776617,1.4839999675750732,10.534000396728516,-0.2770000100135803
1558049776683,1.8380000591278076,12.152999877929688,-1.1579999923706055
1558049776752,0.20999999344348907,11.520999908447266,2.8440001010894775
1558049776881,2.2790000438690186,9.682000160217285,-0.29600000381469727
1558049777081,1.7039999961853027,7.958000183105469,0.11400000005960464
1558049777542,1.350000023841858,9.404000282287598,3.619999885559082
1558049777674,0.33500000834465027,7.642000198364258,0.02800000086426735
1558049778334,0.0860000029206276,7.8429999351501465,-0.23899999260902405
1558049778597,0.9570000171661377,7.747000217437744,0.4779999852180481
1558049778665,2.1059999465942383,8.819999694824219,2.115999937057495
1558049778862,-1.1579999923706055,8.64799976348877,0.04699999839067459
1558049778927,-1.944000005722046,8.9350004196167,-1.1579999923706055
1558049779324,-0.6119999885559082,6.263000011444092,0.23899999260902405
1558049779590,-1.1770000457763672,14.854000091552734,-2.2309999465942383
1558049779719,2.115999937057495,6.78000020980835,-1.0049999952316284
1558049779919,-0.4300000071525574,7.5269999504089355,-0.1720000058412552
1558049780181,-0.02800000086426735,13.369000434875488,3.1019999980926514
1558049780250,-0.1340000033378601,8.062999725341797,6.02400016784668
1558049780379,-1.7230000495910645,8.581000328063965,2.0969998836517334
1558049780644,0.3160000145435333,11.913000106811523,-0.28700000047683716
1558049780709,-1.1390000581741333,13.866999626159668,-1.9149999618530273
1558049780841,4.5289998054504395,9.164999961853027,-1.0429999828338623
1558049780909,-0.6029999852180481,8.675999641418457,2.700000047683716
1558049781174,-0.1809999942779541,9.069000244140625,-0.8610000014305115
1558049781239,-0.6119999885559082,12.104999542236328,-1.8669999837875366
1558049781435,1.378999948501587,10.659000396728516,-0.3919999897480011
1558049781507,-2.680999994277954,7.8429999351501465,0.7850000262260437
1558049781700,0.9480000138282776,10.458000183105469,-0.6600000262260437
1558049781766,0.8330000042915344,12.506999969482422,-0.3919999897480011
1558049782096,-0.44999998807907104,7.1539998054504395,0.3630000054836273
1558049782165,-0.8999999761581421,8.494000434875488,-0.4399999976158142
1558049782426,-3.0350000858306885,10.399999618530273,6.664999961853027
1558049782558,-0.07599999755620956,10.64900016784668,1.684999942779541
1558049782623,-0.7749999761581421,7.890999794006348,0.9480000138282776
1558049782827,0.8519999980926514,9.777999877929688,-0.9760000109672546
1558049783019,-1.9249999523162842,6.885000228881836,3.13100004196167
1558049783085,2.815000057220459,10.218000411987305,-1.7519999742507935
1558049783152,-1.0529999732971191,8.71500015258789,1.7710000276565552
1558049783283,-0.5649999976158142,8.723999977111816,-0.8709999918937683
1558049783349,-1.36899995803833,8.484999656677246,-0.4300000071525574
1558049783484,-0.3440000116825104,12.795000076293945,-3.111999988555908
1558049783679,0.1720000058412552,11.166000366210938,1.7519999742507935
1558049783812,0.9190000295639038,6.493000030517578,-0.7080000042915344
1558049783880,0.4300000071525574,7.73799991607666,0.1340000033378601
1558049783943,0.9860000014305115,9.767999649047852,-0.9760000109672546
1558049784141,-1.2640000581741333,6.8379998207092285,3.3610000610351562
1558049784207,2.3940000534057617,9.652999877929688,-0.41100001335144043
1558049784339,-0.4779999852180481,6.875999927520752,0.4300000071525574
1558049784405,-0.4880000054836273,8.062999725341797,-0.06700000166893005
1558049784482,-1.465000033378601,8.407999992370605,-0.4399999976158142
1558049784603,1.4739999771118164,14.91100025177002,-1.5509999990463257
1558049784749,5.429999828338623,8.043999671936035,-2.86299991607666
1558049784867,-0.10499999672174454,7.382999897003174,0.0
1558049784934,0.9380000233650208,6.923999786376953,-0.23899999260902405
1558049785070,0.5170000195503235,10.640000343322754,-1.1970000267028809
1558049785131,0.621999979019165,13.522000312805176,-2.0490000247955322
1558049785342,2.068000078201294,9.883000373840332,-0.8140000104904175
1558049785399,-1.2350000143051147,8.27400016784668,1.4359999895095825
1558049785461,-0.07599999755620956,7.382999897003174,-0.20999999344348907
1558049785528,-0.9860000014305115,8.369999885559082,-0.5740000009536743
1558049785665,-0.8809999823570251,11.588000297546387,0.257999986410141
1558049785728,2.5850000381469727,13.427000045776367,-3.505000114440918
1558049785857,4.28000020980835,7.382999897003174,-2.1740000247955322
1558049785923,-0.4020000100135803,11.119000434875488,2.0969998836517334
1558049786002,-1.972000002861023,7.767000198364258,1.7039999961853027
1558049786059,0.9570000171661377,6.866000175476074,-0.9480000138282776
1558049786187,0.4020000100135803,9.682000160217285,-0.20100000500679016
1558049786259,-0.008999999612569809,12.755999565124512,0.06700000166893005
1558049786451,2.2019999027252197,10.017000198364258,-1.6080000400543213
1558049786517,-0.5550000071525574,9.279999732971191,1.062999963760376
1558049786583,-0.02800000086426735,6.693999767303467,0.8519999980926514
1558049786649,-0.640999972820282,8.303000450134277,0.11400000005960464
1558049786716,-1.2640000581741333,8.39900016784668,-0.8999999761581421
1558049786781,-0.8330000042915344,9.835000038146973,0.04699999839067459
1558049786847,-0.23899999260902405,14.279000282287598,-2.2119998931884766
1558049786913,-4.48199987411499,9.529000282287598,7.374000072479248
1558049786991,2.7100000381469727,6.348999977111816,0.14300000667572021
1558049787117,-1.8669999837875366,8.03499984741211,1.4259999990463257
1558049787183,0.8230000138282776,6.828000068664551,-0.4880000054836273
1558049787251,0.6510000228881836,7.488999843597412,0.1809999942779541
1558049787380,0.04699999839067459,13.27299976348877,0.4880000054836273
1558049787444,-1.1679999828338623,14.107000350952148,2.7669999599456787
1558049787508,-2.3459999561309814,7.556000232696533,4.75
1558049787574,3.9839999675750732,9.652999877929688,-2.183000087738037
1558049787708,0.20999999344348907,7.144000053405762,-0.0949999988079071
1558049787837,-1.187000036239624,8.072999954223633,-0.28700000047683716
1558049788036,-3.246000051498413,9.940999984741211,6.013999938964844
1558049788104,3.4570000171661377,7.756999969482422,-0.20100000500679016
1558049788177,0.8140000104904175,11.291000366210938,2.0490000247955322
1558049788208,-2.9779999256134033,9.557000160217285,1.6369999647140503
1558049788228,-2.441999912261963,7.814000129699707,0.4880000054836273
1558049788252,-0.15299999713897705,7.144000053405762,0.06700000166893005
1558049788276,0.14300000667572021,6.2820000648498535,-0.5070000290870667
1558049788300,0.6790000200271606,5.947000026702881,-0.5929999947547913
1558049788307,1.1009999513626099,6.4070000648498535,-0.04699999839067459
1558049788349,0.6700000166893005,6.578999996185303,-0.06700000166893005
1558049788371,0.5450000166893005,7.355000019073486,0.06700000166893005
1558049788394,0.4880000054836273,7.690000057220459,-0.29600000381469727
1558049788419,0.5450000166893005,8.656999588012695,-0.5839999914169312
1558049788427,0.9670000076293945,9.567000389099121,-0.6990000009536743
1558049788448,0.8230000138282776,10.60099983215332,-0.5550000071525574
1558049788468,0.257999986410141,12.086000442504883,-0.0949999988079071
1558049788493,-0.1340000033378601,12.814000129699707,0.11400000005960464
1558049788518,-0.0949999988079071,13.819000244140625,-0.8709999918937683
1558049788528,-0.4690000116825104,14.54699993133545,-2.308000087738037
1558049788567,-1.656000018119812,14.269000053405762,3.763000011444092
1558049788589,-1.8860000371932983,11.223999977111816,5.229000091552734
1558049788614,-1.8960000276565552,8.868000030517578,5.304999828338623
1558049788638,-1.934000015258789,8.10200023651123,4.242000102996826
1558049788664,1.3980000019073486,7.5269999504089355,2.4509999752044678
1558049788668,1.9630000591278076,8.503999710083008,0.4020000100135803
1558049788689,2.068000078201294,9.949999809265137,-0.6029999852180481
1558049788713,1.781000018119812,10.715999603271484,-0.4690000116825104
1558049788737,0.621999979019165,9.777999877929688,1.2059999704360962
1558049788747,-0.7850000262260437,9.20300006866455,1.7710000276565552
1558049788789,-1.49399995803833,7.9770002365112305,1.819000005722046
1558049788790,-1.350000023841858,6.78000020980835,1.2059999704360962
1558049788814,-0.7850000262260437,6.568999767303467,1.1970000267028809
1558049788827,-0.257999986410141,6.78000020980835,0.9959999918937683
1558049788861,-0.257999986410141,7.086999893188477,0.0949999988079071
1558049788867,-0.6790000200271606,7.51800012588501,-0.1340000033378601
1558049788908,-1.2059999704360962,8.121000289916992,-0.2770000100135803
1558049788931,-1.4459999799728394,8.388999938964844,-0.7369999885559082
1558049788956,-1.4259999990463257,8.532999992370605,-0.5450000166893005
1558049788967,-1.3020000457763672,8.552000045776367,-0.7850000262260437
1558049789004,-1.1579999923706055,9.039999961853027,-1.034000039100647
1558049789007,-1.034000039100647,9.54800033569336,-0.5070000290870667
1558049789029,-0.9480000138282776,10.60099983215332,-0.14300000667572021
1558049789053,-0.7850000262260437,12.229999542236328,0.0860000029206276
1558049789107,0.8330000042915344,14.107000350952148,-2.1449999809265137
1558049789144,0.0860000029206276,13.770999908447266,2.308000087738037
1558049789148,-2.259999990463257,11.95199966430664,5.697999954223633
1558049789169,-4.423999786376953,8.446999549865723,7.0960001945495605
1558049789191,-2.499000072479248,7.861999988555908,6.464000225067139
1558049789214,0.1340000033378601,7.890999794006348,3.7820000648498535
1558049789237,2.2690000534057617,9.395000457763672,0.1809999942779541
1558049789285,1.1299999952316284,10.831000328063965,-1.1970000267028809
1558049789288,-0.5360000133514404,10.295000076293945,0.5839999914169312
1558049789309,-1.9249999523162842,9.317999839782715,2.240999937057495
1558049789332,-1.5889999866485596,8.331999778747559,2.4609999656677246
1558049789355,-1.2450000047683716,7.172999858856201,1.5219999551773071
1558049789379,-0.9959999918937683,6.368000030517578,0.9670000076293945
1558049789387,-0.5550000071525574,5.439000129699707,-0.5740000009536743
1558049789428,-0.3440000116825104,6.8470001220703125,0.01899999938905239
1558049789450,-0.3540000021457672,7.382999897003174,-0.24899999797344208
1558049789473,1.0429999828338623,7.163000106811523,-0.24899999797344208
1558049789497,0.4399999976158142,7.679999828338623,0.4399999976158142
1558049789592,-0.746999979019165,12.057000160217285,0.04699999839067459
1558049789616,-0.2680000066757202,12.727999687194824,0.37299999594688416
1558049789627,-0.10499999672174454,13.531999588012695,-0.6990000009536743
1558049789715,-3.1600000858306885,10.668000221252441,7.010000228881836
1558049789740,-2.98799991607666,8.753000259399414,4.788000106811523
1558049789747,-1.0049999952316284,7.488999843597412,3.371000051498413
1558049789768,1.2059999704360962,5.515999794006348,0.3440000116825104
1558049789792,1.8669999837875366,8.829999923706055,-0.9760000109672546
1558049789818,1.5219999551773071,10.333000183105469,-0.5550000071525574
1558049789827,0.746999979019165,10.371999740600586,1.503000020980835
1558049789848,-0.008999999612569809,9.538000106811523,1.7039999961853027
1558049789892,-0.8519999980926514,7.307000160217285,1.1100000143051147
1558049789915,-0.8519999980926514,6.703999996185303,0.765999972820282
1558049789939,-0.9480000138282776,6.626999855041504,0.45899999141693115
1558049789963,-1.0240000486373901,6.7230000495910645,0.4399999976158142
1558049789967,-1.1009999513626099,7.0,0.4779999852180481
1558049789988,-1.2059999704360962,8.015999794006348,0.3160000145435333
1558049790012,-1.2640000581741333,8.321999549865723,0.5070000290870667
1558049790037,-1.7330000400543213,8.359999656677246,-0.0860000029206276
1558049790047,-2.068000078201294,8.484999656677246,0.20999999344348907
1558049790086,-2.078000068664551,8.52299976348877,0.32499998807907104
1558049790089,-1.5800000429153442,8.581000328063965,-0.6320000290870667
1558049790111,-1.1299999952316284,9.604999542236328,-0.8230000138282776
1558049790136,-0.7179999947547913,10.803000450134277,-0.3630000054836273
1558049790160,-0.8420000076293945,11.741000175476074,-0.1720000058412552
1558049790187,-1.809999942779541,13.062999725341797,0.11400000005960464
1558049790188,-1.6469999551773071,13.14900016784668,-1.1490000486373901
1558049790213,0.1720000058412552,14.135000228881836,-1.225000023841858
1558049790238,-0.1809999942779541,13.76200008392334,2.5280001163482666
1558049790267,-3.7920000553131104,9.37600040435791,7.058000087738037
1558049790288,-2.134999990463257,8.130000114440918,5.315000057220459
1558049790314,1.312000036239624,7.795000076293945,1.4550000429153442
1558049790339,4.126999855041504,8.878000259399414,-2.2119998931884766
1558049790347,4.548999786376953,11.491999626159668,-3.371000051498413
1558049790369,1.3880000114440918,11.175999641418457,-0.20999999344348907
1558049790416,-2.815000057220459,9.213000297546387,3.734999895095825
1558049790427,-3.265000104904175,8.369999885559082,2.2690000534057617
1558049790466,-1.656000018119812,7.288000106811523,0.6600000262260437
1558049790468,-0.4880000054836273,5.955999851226807,0.257999986410141
1558049790492,-0.02800000086426735,5.09499979019165,-0.3160000145435333
1558049790543,0.6890000104904175,6.664999961853027,-0.3160000145435333
1558049790547,0.8040000200271606,6.9720001220703125,-0.28700000047683716
1558049790599,0.37299999594688416,8.130000114440918,-0.3160000145435333
1558049790626,0.37299999594688416,8.96399974822998,-0.4690000116825104
1558049790629,0.4300000071525574,10.017000198364258,-0.5070000290870667
1558049790654,0.16200000047683716,10.621000289916992,-0.765999972820282
1558049790687,-0.7749999761581421,12.210000038146973,0.29600000381469727
1558049790762,-0.9760000109672546,13.944000244140625,-3.2750000953674316
1558049790767,-1.531999945640564,13.560999870300293,3.2750000953674316
1558049790789,-1.3980000019073486,13.982000350952148,6.482999801635742
1558049790815,-2.8340001106262207,10.11299991607666,7.066999912261963
1558049790841,-2.6429998874664307,8.704999923706055,4.710999965667725
1558049790847,-1.3020000457763672,6.828000068664551,3.13100004196167
1558049790869,1.5509999990463257,7.010000228881836,1.340000033378601
1558049790896,2.5850000381469727,9.519000053405762,-1.340000033378601
1558049790922,2.134999990463257,10.744999885559082,-1.3209999799728394
1558049790927,0.5740000009536743,10.572999954223633,0.7559999823570251
1558049790976,-0.8899999856948853,8.762999534606934,1.1200000047683716
1558049791003,-0.24899999797344208,6.9720001220703125,0.1809999942779541
1558049791007,0.01899999938905239,6.359000205993652,-0.04699999839067459
1558049791030,-0.10499999672174454,6.099999904632568,-0.3440000116825104
1558049791067,-0.6790000200271606,7.249000072479248,-0.3160000145435333
1558049791113,-1.0049999952316284,8.321999549865723,-0.5070000290870667
1558049791138,-1.350000023841858,8.704999923706055,-0.8330000042915344
1558049791147,-1.7430000305175781,9.050000190734863,-0.3919999897480011
1558049791188,-2.000999927520752,8.303000450134277,-0.6600000262260437
1558049791213,-0.5170000195503235,9.194000244140625,-1.225000023841858
1558049791227,-0.5929999947547913,10.678000450134277,-0.6700000166893005
1558049791265,-0.765999972820282,12.104999542236328,-0.640999972820282
1558049791268,-1.1490000486373901,13.331000328063965,-1.1579999923706055
1558049791292,-0.5170000195503235,13.531999588012695,-2.2119998931884766
1558049791320,0.8140000104904175,14.67199993133545,0.0
1558049791346,-0.05700000002980232,13.63700008392334,3.552999973297119
1558049791349,-3.8589999675750732,11.425000190734863,6.234000205993652
1558049791373,-5.056000232696533,9.355999946594238,6.071000099182129
1558049791400,-3.572000026702881,7.901000022888184,4.940999984741211
1558049791427,2.546999931335449,7.172999858856201,0.5450000166893005
1558049791454,6.482999801635742,10.0649995803833,-3.562000036239624
1558049791489,-1.5410000085830688,10.715999603271484,1.6180000305175781
1558049791513,-2.739000082015991,9.940999984741211,3.447000026702881
1558049791542,-2.930000066757202,8.675999641418457,2.4230000972747803
1558049791547,-1.4170000553131104,7.756999969482422,1.809999942779541
1558049791622,0.4020000100135803,6.607999801635742,-0.5550000071525574
1558049791679,0.41100001335144043,7.642000198364258,0.3630000054836273
1558049791754,0.6990000009536743,10.256999969482422,-0.8899999856948853
1558049791811,-0.03799999877810478,13.416999816894531,-0.9190000295639038
1558049791893,-2.0390000343322754,14.576000213623047,5.947000026702881
1558049791949,-0.9279999732971191,5.534999847412109,3.936000108718872
1558049792012,1.9919999837875366,10.131999969482422,-0.41100001335144043
1558049792148,-0.4399999976158142,6.828000068664551,0.5070000290870667
1558049792207,-1.0720000267028809,8.244999885559082,0.0860000029206276
1558049792286,-1.7519999742507935,8.244999885559082,-0.1340000033378601
1558049792343,-0.8610000014305115,11.060999870300293,-0.45899999141693115
1558049792427,0.8999999761581421,13.387999534606934,-1.2920000553131104
1558049792484,-3.111999988555908,9.031000137329102,6.617000102996826
1558049792541,3.6579999923706055,9.604999542236328,-1.8380000591278076
1558049792627,-2.2790000438690186,8.71500015258789,2.614000082015991
1558049792682,-0.4690000116825104,5.918000221252441,0.1720000058412552
1558049792737,0.5360000133514404,7.010000228881836,0.02800000086426735
1558049792820,0.2290000021457672,8.293000221252441,-0.0860000029206276
1558049792876,0.6320000290870667,10.706999778747559,-1.2350000143051147
1558049792933,0.23899999260902405,13.215999603271484,-1.8380000591278076
1558049793074,-0.257999986410141,6.664999961853027,1.5509999990463257
1558049793135,0.9959999918937683,11.031999588012695,1.3589999675750732
1558049793418,-1.1009999513626099,8.484999656677246,-0.4880000054836273
1558049793478,-0.41100001335144043,12.36400032043457,-1.0820000171661377
1558049793536,0.9760000109672546,13.819000244140625,1.1579999923706055
1558049793594,-3.303999900817871,8.532999992370605,4.999000072479248
1558049793659,4.375999927520752,10.878999710083008,-2.4030001163482666
1558049793741,-2.680999994277954,9.595999717712402,2.308000087738037
1558049793862,1.1490000486373901,7.326000213623047,-0.14300000667572021
1558049793923,0.5450000166893005,8.59000015258789,-0.6320000290870667
1558049794001,-0.3440000116825104,11.041999816894531,-0.3630000054836273
1558049794058,0.06700000166893005,14.968999862670898,-2.815000057220459
1558049794124,-2.546999931335449,10.314000129699707,5.401000022888184
1558049794187,1.781000018119812,7.901000022888184,0.7369999885559082
1558049794268,0.7179999947547913,9.998000144958496,1.8380000591278076
1558049794327,0.0,7.230000019073486,1.350000023841858
1558049794386,-0.746999979019165,7.853000164031982,-0.640999972820282
1558049794473,-1.1200000047683716,8.178000450134277,-0.14300000667572021
1558049794532,-1.1009999513626099,8.848999977111816,-0.02800000086426735
1558049794590,-0.5170000195503235,13.130000114440918,-0.5740000009536743
1558049794649,-0.9480000138282776,14.097000122070312,6.377999782562256
1558049794735,-0.6890000104904175,6.9720001220703125,4.051000118255615
1558049794847,-2.240999937057495,8.619000434875488,2.5369999408721924
1558049794913,0.621999979019165,6.252999782562256,-0.14300000667572021
1558049795004,0.29600000381469727,7.182000160217285,0.37299999594688416
1558049795066,0.7179999947547913,9.154999732971191,-0.6029999852180481
1558049795129,-0.20999999344348907,13.090999603271484,0.5450000166893005
1558049795193,-1.6080000400543213,14.73900032043457,-0.06700000166893005
1558049795255,-2.7860000133514404,8.187999725341797,5.620999813079834
1558049795319,3.0160000324249268,7.948999881744385,-1.8480000495910645
1558049795381,-1.36899995803833,10.371999740600586,2.996999979019165
1558049795448,-0.20100000500679016,6.961999893188477,-0.3630000054836273
1558049795509,-0.7080000042915344,7.901000022888184,-0.5450000166893005
1558049795573,-1.465000033378601,8.484999656677246,0.257999986410141
1558049795660,-0.4690000116825104,9.807000160217285,-0.7080000042915344
1558049795723,-0.8040000200271606,12.78499984741211,-1.7999999523162842
1558049795787,-2.0390000343322754,12.23900032043457,5.880000114440918
1558049795849,2.3550000190734863,8.015999794006348,-0.12399999797344208
1558049795911,1.406999945640564,10.994000434875488,0.29600000381469727
1558049795972,-1.1490000486373901,7.928999900817871,0.5839999914169312
1558049796101,0.8610000014305115,7.51800012588501,-0.4399999976158142
1558049796180,0.5260000228881836,9.470999717712402,-0.8809999823570251
1558049796243,-0.0949999988079071,12.383000373840332,0.0949999988079071
1558049796304,-1.0720000267028809,14.565999984741211,2.0490000247955322
1558049796365,-2.375,7.642000198364258,5.343999862670898
1558049796432,2.5850000381469727,10.151000022888184,-1.350000023841858
1558049796497,-1.1579999923706055,8.696000099182129,2.0969998836517334
1558049796580,0.008999999612569809,6.589000225067139,0.6029999852180481
1558049796645,-1.0240000486373901,8.552000045776367,-0.8899999856948853
1558049796649,-1.090999960899353,8.59000015258789,-1.2640000581741333
1558049796678,-1.187000036239624,8.637999534606934,-1.2730000019073486
1558049796711,-1.7519999742507935,8.753000259399414,-0.8040000200271606
1558049796749,-0.9570000171661377,9.395000457763672,-0.2290000021457672
1558049796778,-0.7850000262260437,10.399999618530273,-0.24899999797344208
1558049796811,-0.6990000009536743,12.36400032043457,-0.4300000071525574
1558049796843,0.14300000667572021,12.814000129699707,-3.0160000324249268
1558049796877,1.9630000591278076,14.00100040435791,-1.1970000267028809
1558049796910,-4.328000068664551,8.418000221252441,6.664999961853027
1558049796949,3.0829999446868896,7.909999847412109,0.06700000166893005
1558049796977,5.486999988555908,10.027000427246094,-1.9919999837875366
1558049797011,3.390000104904175,10.640000343322754,-2.1449999809265137
1558049797045,-2.6619999408721924,11.031999588012695,1.934000015258789
1558049797079,-3.2170000076293945,10.008000373840332,2.872999906539917
1558049797089,-0.6790000200271606,7.105999946594238,1.1970000267028809
1558049797149,0.2290000021457672,5.802999973297119,-0.16200000047683716
1558049797150,0.4399999976158142,6.215000152587891,-0.5070000290870667
1558049797190,0.8899999856948853,6.923999786376953,-0.0949999988079071
1558049797216,0.746999979019165,7.355000019073486,0.0860000029206276
1558049797251,0.5070000290870667,7.776000022888184,-0.4779999852180481
1558049797297,0.3059999942779541,10.793000221252441,-0.765999972820282
1558049797320,0.03799999877810478,11.866000175476074,-0.29600000381469727
1558049797355,0.1809999942779541,13.427000045776367,-0.8519999980926514
1558049797390,0.23899999260902405,14.968999862670898,-1.7519999742507935
1558049797424,-1.5800000429153442,14.996999740600586,5.611999988555908
1558049797458,-1.5219999551773071,12.267999649047852,7.0960001945495605
1558049797491,0.008999999612569809,5.888999938964844,1.2059999704360962
1558049797523,3.0739998817443848,7.382999897003174,-1.350000023841858
1558049797529,2.7960000038146973,8.552000045776367,-1.9630000591278076
1558049797560,1.781000018119812,9.73900032043457,-0.8899999856948853
1558049797592,-0.1809999942779541,10.055999755859375,2.0390000343322754
1558049797625,-1.3589999675750732,8.159000396728516,1.809999942779541
1558049797659,-0.6510000228881836,7.46999979019165,0.9380000233650208
1558049797726,-0.5170000195503235,7.939000129699707,-0.4300000071525574
1558049797730,-0.5740000009536743,8.503999710083008,-0.4779999852180481
1558049797758,-0.8040000200271606,8.552000045776367,-0.4880000054836273
1558049797770,-1.0720000267028809,8.475000381469727,-0.4300000071525574
1558049797826,-0.9860000014305115,8.293000221252441,-0.6029999852180481
1558049797830,-0.4690000116825104,9.222000122070312,-0.8610000014305115
1558049797894,-0.14300000667572021,11.520999908447266,0.1720000058412552
1558049797928,-0.4399999976158142,12.996000289916992,-0.8230000138282776
1558049797930,0.6320000290870667,12.765999794006348,-2.375
1558049797962,1.9049999713897705,13.609000205993652,-0.8140000104904175
1558049797996,-2.6519999504089355,10.60099983215332,6.4070000648498535
1558049798031,-2.872999906539917,8.762999534606934,6.043000221252441
1558049798065,2.8529999256134033,8.22599983215332,-0.9480000138282776
1558049798100,4.616000175476074,9.729999542236328,-2.2309999465942383
1558049798110,1.253999948501587,10.96500015258789,1.0820000171661377
1558049798135,-0.8610000014305115,10.60099983215332,2.815000057220459
1558049798171,-2.2119998931884766,9.529000282287598,1.8960000276565552
1558049798206,-0.5550000071525574,6.761000156402588,0.20999999344348907
1558049798242,0.640999972820282,5.7270002365112305,-0.9190000295639038
1558049798249,0.8330000042915344,6.617000102996826,-0.9480000138282776
1558049798278,0.7369999885559082,7.066999912261963,-0.5170000195503235
1558049798314,0.746999979019165,7.440999984741211,-0.2290000021457672
1558049798350,0.7179999947547913,8.005999565124512,-0.45899999141693115
1558049798387,1.1200000047683716,9.059000015258789,-0.45899999141693115
1558049798390,0.8140000104904175,9.79699993133545,-0.9760000109672546
1558049798424,0.19099999964237213,10.706999778747559,-0.9760000109672546
1558049798460,-0.45899999141693115,12.152999877929688,0.11400000005960464
1558049798469,-0.1340000033378601,13.302000045776367,-2.9110000133514404
1558049798496,0.01899999938905239,14.968999862670898,-3.13100004196167
1558049798534,-1.2730000019073486,14.317000389099121,4.289999961853027
1558049798571,-3.3320000171661377,10.621000289916992,6.664999961853027
1558049798608,-1.2059999704360962,6.2820000648498535,1.656000018119812
1558049798611,2.4800000190734863,6.0329999923706055,-1.7999999523162842
1558049798650,3.3610000610351562,9.960000038146973,-1.9630000591278076
1558049798682,0.37299999594688416,10.592000007629395,1.4739999771118164
1558049798689,-1.4550000429153442,10.371999740600586,2.7960000038146973
1558049798718,-1.809999942779541,8.753000259399414,2.240999937057495
1558049798790,-0.28700000047683716,7.010000228881836,-0.621999979019165
1558049798826,-0.4690000116825104,7.890999794006348,-0.3630000054836273
1558049798829,-0.4779999852180481,8.456000328063965,-0.640999972820282
1558049798864,-0.45899999141693115,8.456000328063965,-0.7749999761581421
1558049798909,-1.3589999675750732,8.244999885559082,-0.8140000104904175
1558049798938,-1.1679999828338623,8.178000450134277,-0.28700000047683716
1558049798977,-0.9480000138282776,8.972999572753906,-0.28700000047683716
1558049799014,-0.2680000066757202,11.232999801635742,-0.3440000116825104
1558049799049,-0.2290000021457672,12.822999954223633,-2.624000072479248
1558049799050,1.340000033378601,13.187000274658203,-3.0260000228881836
1558049799120,-1.2640000581741333,12.420999526977539,5.583000183105469
1558049799129,-3.5329999923706055,8.284000396728516,6.7129998207092285
1558049799193,3.0350000858306885,8.552000045776367,-0.20999999344348907
1558049799228,2.3359999656677246,10.428999900817871,-1.7039999961853027
1558049799263,0.06700000166893005,11.098999977111816,0.6890000104904175
1558049799269,-2.078000068664551,9.366000175476074,2.3459999561309814
1558049799372,0.2290000021457672,6.348999977111816,-0.45899999141693115
1558049799407,0.8330000042915344,7.125,-0.20999999344348907
1558049799410,0.8040000200271606,7.440999984741211,-0.0860000029206276
1558049799444,0.6029999852180481,7.861999988555908,-0.02800000086426735
1558049799481,0.4880000054836273,8.168999671936035,-0.8330000042915344
1558049799517,0.6029999852180481,10.03600025177002,-0.5360000133514404
1558049799554,-0.3059999942779541,11.520999908447266,-0.24899999797344208
1558049799590,-0.1720000058412552,13.043999671936035,-0.3440000116825104
1558049799652,-1.4259999990463257,13.10099983215332,4.999000072479248
1558049799689,-2.240999937057495,10.083999633789062,6.02400016784668
1558049799726,0.06700000166893005,5.478000164031982,2.6429998874664307
1558049799765,2.068000078201294,7.853000164031982,-1.312000036239624
1558049799803,0.5170000195503235,10.333000183105469,1.5130000114440918
1558049799809,-0.3540000021457672,10.227999687194824,2.7669999599456787
1558049799841,-0.7179999947547913,8.848999977111816,1.6180000305175781
1558049799849,-0.28700000047683716,7.909999847412109,1.1200000047683716
1558049799880,0.008999999612569809,6.817999839782715,0.3630000054836273
1558049799919,-0.06700000166893005,6.789999961853027,0.0949999988079071
1558049799958,-0.7269999980926514,7.823999881744385,-0.05700000002980232
1558049799997,-0.9860000014305115,8.27400016784668,-0.8709999918937683
1558049800035,-1.1009999513626099,8.359999656677246,-0.4880000054836273
1558049800155,-0.8140000104904175,13.234999656677246,-1.0820000171661377
1558049800234,-0.7269999980926514,13.14900016784668,5.372000217437744
1558049800274,1.5889999866485596,7.574999809265137,0.37299999594688416
1558049800427,-1.7139999866485596,8.27400016784668,1.5509999990463257
1558049800506,0.2290000021457672,6.1479997634887695,-0.8519999980926514
1558049800546,0.5450000166893005,7.61299991607666,-0.621999979019165
1558049800623,0.6510000228881836,9.173999786376953,-0.12399999797344208
1558049800670,0.3630000054836273,12.498000144958496,0.02800000086426735
1558049800737,-1.503000020980835,14.86299991607666,0.9959999918937683
1558049800813,-2.3269999027252197,8.10200023651123,5.372000217437744
1558049800894,2.5850000381469727,9.184000015258789,-2.193000078201294
1558049801010,-0.6890000104904175,6.953000068664551,0.20100000500679016
1558049801074,-0.5929999947547913,8.121000289916992,-0.9670000076293945
1558049801150,-1.350000023841858,8.513999938964844,-0.621999979019165
1558049801268,-0.49799999594688416,13.234999656677246,-2.3940000534057617
1558049801344,-2.078000068664551,11.684000015258789,5.381999969482422
1558049801422,1.628000020980835,7.660999774932861,-0.29600000381469727
1558049801462,-0.5740000009536743,11.26200008392334,1.5509999990463257
1558049801593,-0.0949999988079071,6.656000137329102,-0.04699999839067459
1558049801663,0.4300000071525574,7.61299991607666,0.4779999852180481
1558049801818,-0.4020000100135803,12.718000411987305,0.3540000021457672
1558049801858,-0.49799999594688416,13.819000244140625,-1.406999945640564
1558049801937,-2.4700000286102295,8.503999710083008,5.918000221252441
1558049801989,1.6759999990463257,9.395000457763672,-1.5219999551773071
1558049802055,-0.640999972820282,9.633999824523926,2.240999937057495
1558049802132,0.11400000005960464,6.396999835968018,0.1720000058412552
1558049802212,-0.1720000058412552,7.909999847412109,0.05700000002980232
1558049802254,-1.2350000143051147,8.791000366210938,-0.6320000290870667
1558049802329,-0.9570000171661377,9.807000160217285,-0.8519999980926514
1558049802405,-0.5550000071525574,12.899999618530273,-2.0969998836517334
1558049802522,1.1579999923706055,8.560999870300293,0.8519999980926514
1558049802591,1.6180000305175781,11.166000366210938,-0.4399999976158142
1558049802669,-1.6469999551773071,7.909999847412109,0.45899999141693115
1558049802748,0.4300000071525574,6.02400016784668,-0.4779999852180481
1558049802788,1.1390000581741333,7.46999979019165,-0.4300000071525574
1558049802913,0.45899999141693115,11.51099967956543,-0.5450000166893005
1558049802988,-0.02800000086426735,14.059000015258789,-2.881999969482422
1558049803113,1.9819999933242798,8.600000381469727,-0.8330000042915344
1558049803199,-0.19099999964237213,9.979000091552734,2.1540000438690186
1558049803243,0.20100000500679016,6.493000030517578,0.5450000166893005
1558049803324,-0.5170000195503235,8.043999671936035,0.16200000047683716
1558049803406,-0.8519999980926514,8.9350004196167,-0.41100001335144043
1558049803446,-0.5740000009536743,9.050000190734863,-0.9860000014305115
1558049803528,-1.0429999828338623,12.583999633789062,-0.41100001335144043
1558049803611,-0.02800000086426735,13.130000114440918,4.635000228881836
1558049803735,1.809999942779541,11.041999816894531,-0.6990000009536743
1558049803777,-1.2730000019073486,8.217000007629395,1.8769999742507935
1558049803857,-0.5360000133514404,5.955999851226807,0.11400000005960464
1558049803903,0.9190000295639038,7.182000160217285,0.20999999344348907
1558049803976,0.9480000138282776,8.972999572753906,-1.1200000047683716
1558049804054,-0.19099999964237213,12.833000183105469,0.4399999976158142
1558049804122,-0.9860000014305115,14.595000267028809,-0.1340000033378601
1558049804168,-2.757999897003174,8.446999549865723,5.401000022888184
1558049804250,2.7290000915527344,9.050000190734863,-1.5219999551773071
1558049804376,0.20999999344348907,7.047999858856201,0.1809999942779541
1558049804568,0.008999999612569809,9.404000282287598,-0.7559999823570251
1558049804635,-0.7369999885559082,12.41100025177002,-1.9249999523162842
1558049804702,-2.384000062942505,11.63599967956543,6.464000225067139
1558049804770,4.070000171661377,8.9350004196167,-1.9529999494552612
1558049804837,-0.4300000071525574,10.888999938964844,1.2920000553131104
1558049804906,-1.4459999799728394,7.853000164031982,0.8140000104904175
1558049804973,0.9480000138282776,6.568999767303467,-0.5740000009536743
1558049805041,0.8330000042915344,7.776000022888184,-0.16200000047683716
1558049805108,0.640999972820282,9.682000160217285,-1.1100000143051147
1558049805175,0.2290000021457672,12.631999969482422,-0.5550000071525574
1558049805242,-1.0529999732971191,14.394000053405762,3.447000026702881
1558049805311,-1.1679999828338623,7.5269999504089355,3.246000051498413
1558049805379,1.9049999713897705,10.027000427246094,-0.5929999947547913
1558049805572,-0.3440000116825104,8.628999710083008,-0.2290000021457672
1558049805634,-0.9380000233650208,8.619000434875488,-1.062999963760376
1558049805699,-0.04699999839067459,9.902000427246094,-0.20999999344348907
1558049805830,-3.4570000171661377,10.314000129699707,6.8379998207092285
1558049805895,3.1700000762939453,8.159000396728516,-0.5170000195503235
1558049805962,-0.257999986410141,10.831000328063965,1.5219999551773071
1558049806028,-0.6890000104904175,7.46999979019165,1.3880000114440918
1558049806095,0.621999979019165,7.210999965667725,-0.0949999988079071
1558049806161,0.8230000138282776,7.631999969482422,-0.04699999839067459
1558049806230,0.8140000104904175,9.336999893188477,-0.29600000381469727
1558049806411,-1.49399995803833,7.73799991607666,4.48199987411499
1558049806511,2.1059999465942383,10.102999687194824,-0.8999999761581421
1558049806546,-0.3059999942779541,8.503999710083008,1.3589999675750732
1558049806616,0.1720000058412552,6.656000137329102,-0.04699999839067459
1558049806687,-0.4779999852180481,8.743000030517578,0.20999999344348907
1558049806759,-0.8809999823570251,8.723999977111816,-0.32499998807907104
1558049806825,-0.4880000054836273,10.11299991607666,-0.5929999947547913
1558049806894,-0.621999979019165,12.210000038146973,-1.312000036239624
1558049806964,-1.4359999895095825,10.869999885559082,5.583000183105469
1558049807005,2.2309999465942383,8.88700008392334,-1.034000039100647
1558049807072,-0.1720000058412552,10.916999816894531,1.6950000524520874
1558049807139,-1.5800000429153442,7.795000076293945,0.4779999852180481
1558049807211,0.5170000195503235,6.8379998207092285,-0.06700000166893005
1558049807283,0.6600000262260437,7.795000076293945,-0.01899999938905239
1558049807490,-0.6320000290870667,14.517999649047852,3.178999900817871
1558049807558,-1.9630000591278076,7.928999900817871,4.270999908447266
1558049807600,2.872999906539917,9.480999946594238,-1.8769999742507935
1558049807666,-1.350000023841858,9.232000350952148,1.9919999837875366
1558049807736,0.20100000500679016,6.809000015258789,-0.5360000133514404
1558049807808,-0.41100001335144043,8.369999885559082,-0.257999986410141
1558049807881,-1.4359999895095825,8.532999992370605,-0.5450000166893005
1558049807995,-0.20100000500679016,12.699000358581543,-1.8669999837875366
1558049808065,-2.384000062942505,11.550000190734863,6.750999927520752
1558049808137,1.9249999523162842,7.671000003814697,1.1679999828338623
1558049808211,1.0240000486373901,10.362000465393066,-0.0860000029206276
1558049808285,-0.9190000295639038,7.756999969482422,1.4259999990463257
1558049808325,0.8519999980926514,6.7230000495910645,-0.45899999141693115
1558049808393,0.9190000295639038,7.986999988555908,0.1340000033378601
1558049808465,1.2829999923706055,9.088000297546387,-1.062999963760376
1558049808614,-0.257999986410141,14.364999771118164,1.225000023841858
1558049808655,-2.316999912261963,8.35099983215332,5.046999931335449
1558049808754,2.6429998874664307,9.279999732971191,-1.2920000553131104
1558049808788,-0.9190000295639038,8.83899974822998,1.8960000276565552
1558049808857,0.1340000033378601,6.684000015258789,-0.3160000145435333
1558049808929,-0.5740000009536743,8.637999534606934,-0.2770000100135803
1558049808999,-1.1200000047683716,8.532999992370605,-0.45899999141693115
1558049809070,0.10499999672174454,9.652999877929688,-0.0949999988079071
1558049809142,-0.20100000500679016,12.41100025177002,-1.378999948501587
1558049809253,1.7899999618530273,8.015999794006348,0.9670000076293945
1558049809325,0.7369999885559082,11.175999641418457,-0.2290000021457672
1558049809400,-1.1390000581741333,7.958000183105469,0.9760000109672546
1558049809479,0.45899999141693115,6.493000030517578,-0.20100000500679016
1558049809518,0.9480000138282776,8.062999725341797,-0.06700000166893005
1558049809595,1.090999960899353,9.088000297546387,-0.7850000262260437
1558049809645,-0.2770000100135803,11.760000228881836,0.621999979019165
1558049809782,-2.6519999504089355,8.024999618530273,4.864999771118164
1558049809857,2.9489998817443848,9.001999855041504,-1.3589999675750732
1558049809934,-0.8899999856948853,9.614999771118164,1.656000018119812
1558049809975,-0.42100000381469727,6.980999946594238,-0.3440000116825104
1558049810049,-0.5070000290870667,8.178000450134277,-0.5070000290870667
1558049810127,-1.3209999799728394,7.986999988555908,0.29600000381469727
1558049810173,-0.14300000667572021,9.633999824523926,-0.6600000262260437
1558049810243,-0.1340000033378601,13.58899974822998,-2.5280001163482666
1558049810318,-4.48199987411499,10.581999778747559,6.942999839782715
1558049810438,-2.0299999713897705,10.937000274658203,3.2750000953674316
1558049810505,-0.5170000195503235,7.642000198364258,-0.01899999938905239
1558049810579,0.9570000171661377,7.066999912261963,-0.5740000009536743
1558049810772,0.1720000058412552,12.631999969482422,-1.0049999952316284
1558049810849,-1.6369999647140503,14.230999946594238,2.9110000133514404
1558049810900,-0.9760000109672546,7.382999897003174,3.2750000953674316
1558049810966,2.193000078201294,9.998000144958496,-0.765999972820282
1558049811126,-0.8709999918937683,7.039000034332275,0.4399999976158142
1558049811167,-1.0149999856948853,8.734000205993652,-0.3440000116825104
1558049811248,-0.6320000290870667,7.9770002365112305,-1.034000039100647
1558049811329,-0.1720000058412552,9.652999877929688,-0.29600000381469727
1558049811369,-0.44999998807907104,13.111000061035156,-1.3589999675750732
1558049811450,-2.614000082015991,12.5649995803833,6.263000011444092
1558049811493,1.187000036239624,7.182000160217285,0.9380000233650208
1558049811571,0.05700000002980232,11.866000175476074,2.0390000343322754
1558049811652,-0.8519999980926514,7.823999881744385,0.5740000009536743
1558049811693,-0.1720000058412552,5.813000202178955,-0.3630000054836273
1558049811823,1.1679999828338623,9.298999786376953,-0.7369999885559082
1558049811967,-0.02800000086426735,14.42300033569336,-1.6950000524520874
1558049812045,-2.624000072479248,8.369999885559082,6.138000011444092
1558049812088,1.7330000400543213,9.720000267028809,-0.45899999141693115
1558049812159,0.6890000104904175,10.793000221252441,1.9630000591278076
1558049812235,0.15299999713897705,6.061999797821045,0.3440000116825104
1558049812313,-0.3059999942779541,8.043999671936035,-0.3630000054836273
1558049812354,-0.9480000138282776,8.868000030517578,-0.6600000262260437
1558049812432,-0.28700000047683716,9.279999732971191,-0.8330000042915344
1558049812553,-2.556999921798706,12.718000411987305,6.961999893188477
1558049812681,0.8899999856948853,10.447999954223633,1.3880000114440918
1558049812758,-1.2920000553131104,8.255000114440918,0.621999979019165
1558049812839,1.0429999828338623,6.750999927520752,-0.746999979019165
1558049812880,0.9959999918937683,7.861999988555908,-0.4880000054836273
1558049812961,0.746999979019165,8.8100004196167,-1.062999963760376
1558049813044,0.32499998807907104,12.267999649047852,-0.45899999141693115
1558049813085,-0.7749999761581421,14.977999687194824,-1.090999960899353
1558049813168,-2.930000066757202,7.823999881744385,5.583000183105469
1558049813210,3.371000051498413,9.241000175476074,-1.4259999990463257
1558049813292,-0.4690000116825104,8.944999694824219,1.4739999771118164
1558049813341,-0.14300000667572021,6.51200008392334,0.1809999942779541
1558049813419,-0.7369999885559082,8.571000099182129,-0.4300000071525574
1558049813547,-0.20100000500679016,9.442999839782715,-0.4020000100135803
1558049813632,0.4300000071525574,13.293000221252441,-1.9249999523162842
1558049813674,-2.068000078201294,11.425000190734863,5.745999813079834
1558049813890,-0.9380000233650208,7.258999824523926,0.9480000138282776
1558049813939,0.33500000834465027,6.894999980926514,-0.1720000058412552
1558049814018,0.44999998807907104,7.939000129699707,-0.0949999988079071
1558049814067,0.8809999823570251,9.510000228881836,-0.8519999980926514
1558049814149,0.008999999612569809,12.65999984741211,0.14300000667572021
1558049814237,-1.2640000581741333,14.892000198364258,3.993000030517578
1558049814280,-1.5800000429153442,6.8470001220703125,2.9489998817443848
1558049814331,2.0390000343322754,10.458000183105469,-1.034000039100647
1558049814411,-0.3919999897480011,8.043999671936035,1.684999942779541
1558049814536,-0.5740000009536743,8.465999603271484,-0.746999979019165
1558049814619,-1.4459999799728394,8.503999710083008,-0.6320000290870667
1558049814662,-0.2290000021457672,9.835000038146973,-0.5550000071525574
1558049814745,0.0860000029206276,12.315999984741211,-2.4609999656677246
1558049814871,3.936000108718872,7.5269999504089355,-0.3160000145435333
1558049814957,0.7940000295639038,10.592000007629395,1.0429999828338623
1558049814999,-1.2450000047683716,8.380000114440918,0.4399999976158142
1558049815081,0.6790000200271606,6.894999980926514,-0.6700000166893005
1558049815124,0.9760000109672546,7.995999813079834,-0.746999979019165
1558049815211,0.8899999856948853,8.456000328063965,-1.0820000171661377
1558049815257,0.19099999964237213,11.932999610900879,-0.12399999797344208
1558049815344,0.07599999755620956,14.383999824523926,-1.1770000457763672
1558049815389,-2.872999906539917,8.972999572753906,5.572999954223633
1558049815477,2.7669999599456787,8.704999923706055,-0.8999999761581421
1558049815521,-0.5170000195503235,10.027000427246094,2.0969998836517334
1558049815654,-0.5649999976158142,8.427000045776367,-0.4020000100135803
1558049815742,-1.1679999828338623,8.494000434875488,-0.7179999947547913
1558049815785,-0.746999979019165,9.194000244140625,-0.2770000100135803
1558049815871,-0.2770000100135803,12.699000358581543,-0.746999979019165
1558049816004,-0.9480000138282776,7.163000106811523,2.5759999752044678
1558049816049,2.4800000190734863,10.256999969482422,-0.8999999761581421
1558049816179,0.32499998807907104,5.8420000076293945,0.5740000009536743
1558049816258,1.062999963760376,7.556000232696533,-0.3160000145435333
1558049816311,0.9480000138282776,8.685999870300293,-0.8809999823570251
1558049816474,0.5070000290870667,13.675999641418457,-1.7999999523162842
1558049816517,-1.8960000276565552,11.463000297546387,6.501999855041504
1558049816603,2.6619999408721924,6.923999786376953,-0.4399999976158142
1558049816646,0.05700000002980232,10.324000358581543,1.781000018119812
1558049816739,0.04699999839067459,7.440999984741211,0.7749999761581421
1558049816784,-0.4300000071525574,7.6519999504089355,-0.1720000058412552
1558049816922,-0.5170000195503235,8.723999977111816,-0.7850000262260437
1558049817055,2.700000047683716,13.723999977111816,0.6029999852180481
1558049817103,-2.7100000381469727,8.532999992370605,5.113999843597412
1558049817236,-2.7290000915527344,10.630000114440918,2.3459999561309814
1558049817324,0.765999972820282,5.85099983215332,-0.41100001335144043
1558049817370,0.8040000200271606,7.144000053405762,-0.4020000100135803
1558049817462,0.621999979019165,8.723999977111816,-0.746999979019165
1558049817508,0.4020000100135803,11.003999710083008,-0.8809999823570251
1558049817565,0.19099999964237213,13.081999778747559,-2.0299999713897705
1558049817644,-1.4359999895095825,12.067000389099121,5.486999988555908
1558049817732,1.6660000085830688,6.798999786376953,0.8519999980926514
1558049817778,0.8709999918937683,10.706999778747559,1.2350000143051147
1558049817829,0.20100000500679016,7.239999771118164,1.1490000486373901
1558049817912,-0.2290000021457672,7.88100004196167,0.3440000116825104
1558049818044,-0.7179999947547913,8.312000274658203,-0.29600000381469727
1558049818179,2.2119998931884766,14.163999557495117,-1.1200000047683716
1558049818225,-2.805999994277954,8.418000221252441,6.693999767303467
1558049818313,4.289999961853027,9.355999946594238,-1.7330000400543213
1558049818361,-2.624000072479248,10.170000076293945,3.1500000953674316
1558049818505,0.7369999885559082,7.230000019073486,-0.01899999938905239
1558049818555,0.5260000228881836,8.024999618530273,-0.9190000295639038
1558049818647,0.5170000195503235,10.696999549865723,-0.4690000116825104
1558049818790,-1.8569999933242798,12.842000007629395,6.761000156402588
1558049818837,2.2119998931884766,6.1579999923706055,0.11400000005960464
1558049818934,1.253999948501587,11.347999572753906,1.1579999923706055
1558049818983,0.20999999344348907,7.047999858856201,0.4779999852180481
1558049819030,-0.20100000500679016,7.440999984741211,-0.0860000029206276
1558049819083,-0.8330000042915344,8.656999588012695,-0.9860000014305115
1558049819225,-1.0049999952316284,12.114999771118164,-0.04699999839067459
1558049819364,-2.7100000381469727,8.878000259399414,5.285999774932861
1558049819413,3.734999895095825,9.86400032043457,-1.8769999742507935
1558049819549,0.03799999877810478,6.0329999923706055,0.2290000021457672
1558049819643,0.8899999856948853,7.604000091552734,-0.5450000166893005
1558049819689,0.3919999897480011,8.581000328063965,-1.062999963760376
1558049819743,0.15299999713897705,10.859999656677246,-0.8040000200271606
1558049819830,0.7749999761581421,13.22599983215332,-2.671999931335449
1558049819972,2.4700000286102295,6.550000190734863,1.3209999799728394
1558049820021,1.2829999923706055,10.447999954223633,0.6890000104904175
1558049820074,0.29600000381469727,6.875999927520752,1.5130000114440918
1558049820172,-0.7940000295639038,7.699999809265137,0.3630000054836273
1558049820221,-0.8420000076293945,8.560999870300293,-0.9860000014305115
1558049820275,-0.6029999852180481,8.944999694824219,0.20100000500679016
1558049820367,-0.1809999942779541,12.631999969482422,-0.45899999141693115
1558049820565,3.9260001182556152,9.86400032043457,-2.2309999465942383
1558049820617,-2.739000082015991,9.039999961853027,2.2690000534057617
1558049820668,0.2290000021457672,5.97599983215332,-0.7369999885559082
1558049820768,0.8709999918937683,7.479000091552734,-0.20999999344348907
1558049820817,1.0429999828338623,8.600000381469727,-0.4880000054836273
1558049820866,0.02800000086426735,11.732000350952148,-0.06700000166893005
1558049820960,-0.04699999839067459,14.61400032043457,-1.3980000019073486
1558049821008,-1.9630000591278076,9.815999984741211,6.7230000495910645
1558049821063,3.0450000762939453,7.0960001945495605,-1.2920000553131104
1558049821199,-0.04699999839067459,7.105999946594238,0.32499998807907104
1558049821294,-0.42100000381469727,8.015999794006348,0.02800000086426735
1558049821344,-1.1299999952316284,8.685999870300293,-0.5070000290870667
1558049821393,-0.20100000500679016,8.848999977111816,-0.8899999856948853
1558049821483,-0.8420000076293945,13.111000061035156,-0.5070000290870667
1558049821530,1.1770000457763672,13.331000328063965,2.9779999256134033
1558049821629,-1.1299999952316284,7.9679999351501465,2.9010000228881836
1558049821679,2.805999994277954,9.510000228881836,-0.4300000071525574
1558049821730,-2.815000057220459,9.079000473022461,1.465000033378601
1558049821833,0.5550000071525574,6.2820000648498535,-0.2290000021457672
1558049821885,1.2350000143051147,7.066999912261963,-0.5929999947547913
1558049821935,0.4300000071525574,8.868000030517578,-0.7080000042915344
1558049821989,0.765999972820282,11.482999801635742,-1.0049999952316284
1558049822143,-1.8480000495910645,11.63599967956543,5.955999851226807
1558049822251,0.2680000066757202,9.786999702453613,1.0429999828338623
1558049822349,-0.2199999988079071,7.440999984741211,1.7039999961853027
1558049822401,-0.4880000054836273,8.072999954223633,0.0860000029206276
1558049822451,-0.7559999823570251,8.284000396728516,-0.6320000290870667
1558049822550,-0.7850000262260437,9.088000297546387,-0.4020000100135803
1558049822600,-0.37299999594688416,12.41100025177002,-0.37299999594688416
1558049822649,2.7100000381469727,13.302000045776367,-0.01899999938905239
1558049822748,-2.614000082015991,8.10200023651123,6.177000045776367
1558049822796,4.251999855041504,10.763999938964844,-1.2640000581741333
1558049822849,-1.4550000429153442,8.819999694824219,2.2980000972747803
1558049822997,0.8420000076293945,7.986999988555908,-0.12399999797344208
1558049823047,0.10499999672174454,8.83899974822998,-0.5170000195503235
1558049823148,0.5170000195503235,11.3100004196167,-0.3440000116825104
1558049823199,0.382999986410141,13.847999572753906,-2.4609999656677246
1558049823251,-2.6040000915527344,9.73900032043457,7.0960001945495605
1558049823310,2.4030001163482666,9.154999732971191,-0.45899999141693115
1558049823465,0.3440000116825104,6.310999870300293,0.04699999839067459
1558049823517,-0.33500000834465027,8.024999618530273,-0.257999986410141
1558049823571,-1.378999948501587,9.069000244140625,-0.24899999797344208
1558049823675,-0.3630000054836273,9.097999572753906,-1.090999960899353
1558049823730,-1.1579999923706055,12.737000465393066,-1.5219999551773071
1558049823783,-0.20100000500679016,13.46500015258789,2.183000087738037
1558049823837,-2.1449999809265137,8.053999900817871,3.74399995803833
1558049823942,3.562000036239624,9.701000213623047,-1.5700000524520874
1558049823996,-2.9010000228881836,8.878000259399414,2.556999921798706
1558049824050,0.6029999852180481,6.043000221252441,-0.41100001335144043
1558049824102,0.44999998807907104,7.296999931335449,0.05700000002980232
1558049824254,0.4779999852180481,11.673999786376953,-0.621999979019165
1558049824306,-0.2770000100135803,13.866999626159668,-2.078000068664551
1558049824406,-2.7860000133514404,10.227999687194824,7.210999965667725
1558049824458,2.739000082015991,7.058000087738037,-0.5929999947547913
1558049824509,-0.4020000100135803,9.510000228881836,2.700000047683716
1558049824562,0.33500000834465027,7.355000019073486,0.9760000109672546
1558049824628,-0.746999979019165,7.958000183105469,-0.01899999938905239
1558049824715,-0.7269999980926514,8.293000221252441,-0.6029999852180481
1558049824766,-1.2640000581741333,8.88700008392334,-0.01899999938905239
1558049824825,-0.6029999852180481,12.343999862670898,-0.7179999947547913
1558049824928,1.3880000114440918,15.083999633789062,3.8499999046325684
1558049824984,-0.8809999823570251,7.565000057220459,3.7149999141693115
1558049825038,2.259999990463257,9.42300033569336,-1.1770000457763672
1558049825095,-3.4760000705718994,9.54800033569336,2.7669999599456787
1558049825301,0.4300000071525574,8.666999816894531,-0.746999979019165
1558049825355,-0.257999986410141,11.463000297546387,-0.7179999947547913
1558049825462,0.008999999612569809,13.560999870300293,-3.0260000228881836
1558049825518,-2.930000066757202,11.722000122070312,6.196000099182129
1558049825629,0.49799999594688416,10.821999549865723,0.5929999947547913
1558049825791,-0.4880000054836273,7.556000232696533,0.8140000104904175
1558049825896,-1.0820000171661377,8.541999816894531,-1.0820000171661377
1558049825949,-0.6119999885559082,11.482999801635742,-0.3440000116825104
1558049826057,1.2640000581741333,15.312999725341797,0.7369999885559082
1558049826109,-2.078000068664551,8.053999900817871,6.684000015258789
1558049826162,3.121999979019165,8.619000434875488,-1.5219999551773071
1558049826214,-2.4700000286102295,9.777999877929688,2.000999927520752
1558049826376,0.03799999877810478,7.182000160217285,-0.1340000033378601
1558049826432,-0.20100000500679016,8.22599983215332,-0.02800000086426735
1558049826489,-0.4779999852180481,11.060999870300293,-0.32499998807907104
1558049826658,-3.2750000953674316,10.803000450134277,6.894999980926514
1558049826715,-0.12399999797344208,6.789999961853027,0.5170000195503235
1558049826829,-0.640999972820282,6.664999961853027,0.5839999914169312
1558049826886,-0.9480000138282776,7.767000198364258,0.0
1558049826941,-1.3020000457763672,8.456000328063965,-0.7080000042915344
1558049827003,-2.0969998836517334,8.619000434875488,-1.1200000047683716
1558049827113,-0.8610000014305115,11.961000442504883,-0.7850000262260437
1558049827169,0.4300000071525574,14.62399959564209,3.2269999980926514
1558049827225,-1.2350000143051147,8.819999694824219,3.437999963760376
1558049827278,1.9529999494552612,9.74899959564209,-1.5800000429153442
1558049827334,-3.4760000705718994,8.848999977111816,2.671999931335449
1558049827495,-0.20100000500679016,6.980999946594238,0.2290000021457672
1558049827549,-0.8040000200271606,8.187999725341797,-1.3209999799728394
1558049827664,-0.8330000042915344,15.102999687194824,-2.7960000038146973
1558049827767,-2.565999984741211,10.295000076293945,6.2729997634887695
1558049827822,0.382999986410141,8.581000328063965,0.3440000116825104
1558049827876,-0.5929999947547913,9.557000160217285,1.7999999523162842
1558049827932,0.20100000500679016,6.368000030517578,0.37299999594688416
1558049827993,-1.2059999704360962,7.679999828338623,0.16200000047683716
1558049828164,-1.4359999895095825,9.039999961853027,-1.062999963760376
1558049828222,-1.5219999551773071,12.315999984741211,-0.7179999947547913
1558049828280,0.6600000262260437,13.168000221252441,2.509000062942505
1558049828338,-1.8480000495910645,9.222000122070312,1.6369999647140503
1558049828396,0.8040000200271606,11.175999641418457,-0.5839999914169312
1558049828456,-1.36899995803833,7.718999862670898,0.1809999942779541
1558049828572,-0.12399999797344208,6.204999923706055,-0.1340000033378601
1558049828630,0.20999999344348907,7.61299991607666,0.0
1558049828688,0.640999972820282,8.906000137329102,-1.2350000143051147
1558049828747,-0.5170000195503235,12.373000144958496,-0.1809999942779541
1558049828804,-0.6890000104904175,14.470999717712402,0.9480000138282776
1558049828918,2.7960000038146973,9.241000175476074,-1.0820000171661377
1558049829087,-0.5070000290870667,7.039000034332275,-0.20100000500679016
1558049829207,-1.3980000019073486,8.848999977111816,-1.0429999828338623
1558049829324,-0.6119999885559082,12.152999877929688,-1.934000015258789
1558049829380,-3.5429999828338623,11.597000122070312,7.0960001945495605
1558049829488,1.1970000267028809,9.145999908447266,0.0949999988079071
1558049829542,-0.4020000100135803,10.782999992370605,0.04699999839067459
1558049829599,-1.1490000486373901,7.46999979019165,0.6510000228881836
1558049829656,-0.257999986410141,6.51200008392334,0.11400000005960464
1558049829715,0.3059999942779541,7.660999774932861,0.4880000054836273
1558049829832,0.5450000166893005,9.567000389099121,-1.49399995803833
1558049829893,-0.4690000116825104,13.494000434875488,-0.7559999823570251
1558049829953,-2.0490000247955322,14.288999557495117,4.510000228881836
1558049830013,-2.010999917984009,6.550000190734863,4.539000034332275
1558049830074,1.1770000457763672,10.218000411987305,-0.7749999761581421
1558049830135,0.0,7.010000228881836,1.8669999837875366
1558049830197,-1.1009999513626099,7.210999965667725,0.6510000228881836
1558049830255,-1.225000023841858,8.092000007629395,-1.1200000047683716
1558049830313,-1.1200000047683716,8.484999656677246,-0.6320000290870667
1558049830373,-0.23899999260902405,11.454000473022461,-0.640999972820282
1558049830550,-4.251999855041504,9.26099967956543,6.693999767303467
1558049830607,5.065999984741211,9.826000213623047,-3.0260000228881836
1558049830665,-3.8399999141693115,10.027000427246094,2.872999906539917
1558049830725,0.02800000086426735,5.918000221252441,0.29600000381469727
1558049830839,0.03799999877810478,8.130000114440918,-0.7749999761581421
1558049830898,-0.1720000058412552,10.956000328063965,-0.3440000116825104
1558049831069,-2.1540000438690186,13.484000205993652,5.113999843597412
1558049831127,-0.4020000100135803,5.315000057220459,1.9819999933242798
1558049831185,0.9959999918937683,9.432999610900879,1.1970000267028809
1558049831307,-1.378999948501587,7.440999984741211,0.3630000054836273
1558049831370,-1.2829999923706055,8.083000183105469,-0.24899999797344208
1558049831431,-1.6469999551773071,8.791000366210938,-0.7179999947547913
1558049831492,-1.187000036239624,13.168000221252441,-0.746999979019165
1558049831557,0.6890000104904175,14.451000213623047,3.4860000610351562
1558049831623,-2.499000072479248,7.939000129699707,3.753999948501587
1558049831738,2.4030001163482666,10.1899995803833,-0.7369999885559082
1558049831800,-2.068000078201294,8.64799976348877,1.5800000429153442
1558049831862,0.257999986410141,6.445000171661377,0.0860000029206276
1558049831922,-0.257999986410141,7.086999893188477,0.3540000021457672
1558049832046,0.3440000116825104,11.95199966430664,-0.0860000029206276
1558049832108,0.5360000133514404,14.116000175476074,-2.565999984741211
1558049832169,-4.126999855041504,10.142000198364258,7.105999946594238
1558049832228,2.115999937057495,8.321999549865723,-0.06700000166893005
1558049832288,0.15299999713897705,9.25100040435791,1.9529999494552612
1558049832524,-1.2059999704360962,8.925000190734863,-0.5070000290870667
1558049832583,-1.0429999828338623,9.395000457763672,-0.7080000042915344
1558049832644,-0.4690000116825104,12.324999809265137,-1.7039999961853027
1558049832703,0.9480000138282776,13.293000221252441,2.9110000133514404
1558049832761,-0.621999979019165,8.552000045776367,5.085000038146973
1558049832821,1.4739999771118164,11.185999870300293,-1.0429999828338623
1558049832882,-1.1200000047683716,7.795000076293945,1.9630000591278076
1558049832947,-0.02800000086426735,6.11899995803833,-0.41100001335144043
1558049833011,-0.05700000002980232,7.125,0.1340000033378601
1558049833076,0.6320000290870667,8.581000328063965,-1.1299999952316284
1558049833141,0.1809999942779541,12.53600025177002,0.3919999897480011
1558049833207,-0.5170000195503235,15.486000061035156,-0.1340000033378601
1558049833329,-4.577000141143799,8.437000274658203,7.288000106811523
1558049833390,3.562000036239624,8.619000434875488,-2.1740000247955322
1558049833454,-0.41100001335144043,8.619000434875488,2.375
1558049833515,-1.187000036239624,7.019999980926514,0.6700000166893005
1558049833579,-1.350000023841858,7.995999813079834,-0.9860000014305115
1558049833642,-1.5410000085830688,8.407999992370605,-0.6700000166893005
1558049833706,0.5260000228881836,9.270000457763672,-1.3880000114440918
1558049833769,-0.8140000104904175,12.755999565124512,-2.556999921798706
1558049833829,-2.9679999351501465,11.463000297546387,8.159000396728516
1558049833890,2.384000062942505,10.170000076293945,-1.781000018119812
1558049833944,0.008999999612569809,9.595999717712402,2.240999937057495
1558049834000,-0.9480000138282776,5.8420000076293945,1.6080000400543213
1558049834077,-0.19099999964237213,4.616000175476074,-0.20100000500679016
1558049834132,0.23899999260902405,7.718999862670898,-0.32499998807907104
1558049834208,-0.06700000166893005,13.130000114440918,-2.0969998836517334
1558049834347,-4.156000137329102,12.086000442504883,8.560999870300293
1558049834402,6.991000175476074,7.728000164031982,-3.5329999923706055
1558049834461,-2.690999984741211,10.055999755859375,1.8380000591278076
1558049834538,-0.7749999761581421,7.690000057220459,0.4779999852180481
1558049834595,-1.340000033378601,7.010000228881836,0.14300000667572021
1558049834741,-1.4550000429153442,8.734000205993652,0.0949999988079071
1558049834798,-1.7430000305175781,14.07800006866455,-0.3630000054836273
1558049834880,0.640999972820282,15.64900016784668,3.0739998817443848
1558049834923,-0.4880000054836273,8.675999641418457,5.007999897003174
1558049835055,-3.0929999351501465,8.35099983215332,4.702000141143799
1558049835121,0.20999999344348907,4.672999858856201,0.01899999938905239
1558049835254,-0.6510000228881836,9.336999893188477,-0.0860000029206276
1558049835320,-0.008999999612569809,13.46500015258789,-0.7850000262260437
1558049835650,-0.3059999942779541,6.252999782562256,0.7369999885559082
1558049835980,-5.85099983215332,8.9350004196167,9.998000144958496
1558049836046,6.310999870300293,9.940999984741211,-1.1579999923706055
1558049836112,-2.441999912261963,9.940999984741211,2.9590001106262207
1558049836178,-0.6320000290870667,5.429999828338623,1.5700000524520874
1558049836310,-0.33500000834465027,8.762999534606934,-0.32499998807907104
1558049836442,0.7940000295639038,14.020000457763672,-2.747999906539917
1558049836508,-4.491000175476074,10.246999740600586,9.998000144958496
1558049836640,-1.5509999990463257,10.850000381469727,1.2730000019073486
1558049836904,-0.14300000667572021,12.85200023651123,-1.5700000524520874
1558049837037,-3.390000104904175,9.883000373840332,9.232000350952148
1558049837234,0.45899999141693115,4.270999908447266,-0.02800000086426735
1558049837300,0.6600000262260437,5.372000217437744,0.11400000005960464
1558049837366,0.8330000042915344,9.826000213623047,-0.2770000100135803
1558049837432,1.1200000047683716,14.748000144958496,-0.3440000116825104
1558049837498,-3.2170000076293945,15.093000411987305,6.750999927520752
1558049837630,0.4779999852180481,11.060999870300293,1.1970000267028809
1558049837762,-0.11400000005960464,4.691999912261963,0.1809999942779541
1558049837828,-1.2350000143051147,8.159000396728516,-0.3440000116825104
1558049837960,0.37299999594688416,14.048999786376953,-2.700000047683716
1558049838092,5.7170000076293945,11.894000053405762,-2.6519999504089355
1558049838158,-2.930000066757202,9.213000297546387,2.805999994277954
1558049838291,1.0049999952316284,5.209000110626221,-0.3440000116825104
1558049838620,-0.1720000058412552,9.42300033569336,0.3440000116825104
1558049838686,-0.7179999947547913,5.572999954223633,1.0820000171661377
1558049838752,0.257999986410141,5.056000232696533,0.02800000086426735
1558049838818,-1.7330000400543213,8.513999938964844,-0.5740000009536743
1558049838884,0.5360000133514404,12.335000038146973,-1.3880000114440918
1558049839082,5.7170000076293945,12.871000289916992,-2.125999927520752
1558049839280,0.6510000228881836,5.659999847412109,0.06700000166893005
1558049839346,0.6320000290870667,9.614999771118164,-0.5070000290870667
1558049839412,0.3440000116825104,14.758000373840332,-1.3589999675750732
1558049839544,0.8809999823570251,7.593999862670898,-0.8040000200271606
1558049839610,1.1579999923706055,11.807999610900879,1.1200000047683716
1558049839678,-0.37299999594688416,5.5929999351501465,0.1340000033378601
1558049840011,-5.085000038146973,10.027000427246094,8.857999801635742
1558049852956,-0.7749999761581421,8.39900016784668,-0.3160000145435333
1558049853219,5.0279998779296875,10.496000289916992,-3.9639999866485596
1558049853351,-0.008999999612569809,4.940999984741211,0.16200000047683716
1558049853417,0.7269999980926514,6.177000045776367,-0.9279999732971191
1558049853483,0.7940000295639038,8.982999801635742,-0.5070000290870667
1558049853549,0.008999999612569809,12.468999862670898,-0.257999986410141
1558049853681,-2.7960000038146973,9.470999717712402,7.144000053405762
1558049853945,-0.6320000290870667,6.980999946594238,-0.257999986410141
1558049854011,-1.2920000553131104,8.829999923706055,-0.3440000116825104
1558049854209,-4.35699987411499,8.303000450134277,8.560999870300293
1558049854341,-1.9919999837875366,8.359999656677246,3.2939999103546143
1558049854737,-0.9860000014305115,6.8379998207092285,0.8519999980926514
1558049855067,-0.4690000116825104,10.199000358581543,-1.090999960899353
1558049855199,-0.6600000262260437,13.187000274658203,5.343999862670898
1558049855331,0.07599999755620956,10.305000305175781,-0.1809999942779541
1558049855482,0.03799999877810478,6.540999889373779,-0.28700000047683716
1558049855563,0.8519999980926514,8.675999641418457,-1.0149999856948853
1558049855646,-0.621999979019165,13.187000274658203,0.3540000021457672
1558049855682,-0.10499999672174454,14.336000442504883,-0.8610000014305115
1558049855862,0.07599999755620956,10.428999900817871,2.0969998836517334
1558049855882,-0.9860000014305115,9.786999702453613,2.881999969482422
1558049855910,-0.7369999885559082,6.664999961853027,2.115999937057495
1558049855922,-0.49799999594688416,6.2820000648498535,1.4359999895095825
1558049855982,-0.7179999947547913,6.1579999923706055,0.0949999988079071
1558049856002,-0.6990000009536743,6.568999767303467,-0.06700000166893005
1558049856042,-0.6890000104904175,7.6519999504089355,-0.11400000005960464
1558049856108,-0.6890000104904175,9.317999839782715,0.23899999260902405
1558049856306,1.1100000143051147,7.460000038146973,4.107999801635742
1558049856343,4.3379998207092285,11.406000137329102,-1.2350000143051147
1558049856372,0.8899999856948853,11.204999923706055,0.41100001335144043
1558049856442,-1.034000039100647,6.693999767303467,0.8140000104904175
1558049856483,0.10499999672174454,4.788000106811523,0.5740000009536743
1558049856503,0.2290000021457672,5.343999862670898,0.0949999988079071
1558049856570,0.3630000054836273,7.440999984741211,0.3630000054836273
1558049856622,1.340000033378601,9.519000053405762,-0.8330000042915344
1558049856682,0.06700000166893005,13.005000114440918,-0.29600000381469727
1558049856702,0.0,13.800000190734863,-0.01899999938905239
1558049856743,-1.2059999704360962,14.949000358581543,0.7850000262260437
1558049856783,-2.0969998836517334,11.836999893188477,6.1479997634887695
1558049856803,-2.614000082015991,9.682000160217285,6.8379998207092285
1558049856823,-2.010999917984009,7.747000217437744,5.2769999504089355
1558049856863,1.090999960899353,8.88700008392334,0.24899999797344208
1558049856883,0.9860000014305115,10.343000411987305,-0.5450000166893005
1558049856903,0.2290000021457672,10.428999900817871,0.37299999594688416
1558049856966,-0.32499998807907104,6.013999938964844,2.5179998874664307
1558049856985,-0.32499998807907104,5.458000183105469,1.4259999990463257
1558049857002,-0.8330000042915344,5.218999862670898,0.6700000166893005
1558049857032,-1.36899995803833,6.166999816894531,0.41100001335144043
1558049857123,-0.9190000295639038,8.743000030517578,1.4739999771118164
1558049857163,-0.6890000104904175,11.147000312805176,0.1340000033378601
1558049857183,0.3160000145435333,12.498000144958496,-0.3919999897480011
1558049857283,-1.5889999866485596,14.279000282287598,5.0279998779296875
1558049857362,1.0529999732971191,7.440999984741211,5.085000038146973
1558049857442,-0.3919999897480011,9.826000213623047,1.9630000591278076
1558049857502,-0.42100000381469727,5.229000091552734,3.2079999446868896
1558049857562,0.1720000058412552,4.625,0.8040000200271606
1558049857626,0.7369999885559082,6.8379998207092285,1.0049999952316284
1558049857662,0.5260000228881836,8.062999725341797,0.9279999732971191
1558049857691,0.6029999852180481,9.758999824523926,-0.2770000100135803
1558049857702,0.8610000014305115,10.218000411987305,-0.5070000290870667
1558049857762,0.008999999612569809,13.005000114440918,0.6700000166893005
1558049857783,-0.2199999988079071,13.454999923706055,0.5929999947547913
1558049857922,0.6600000262260437,7.125,4.051000118255615
1558049857962,2.384000062942505,9.902000427246094,-0.5360000133514404
1558049858023,0.5070000290870667,7.995999813079834,3.5910000801086426
1558049858088,-0.5649999976158142,5.955999851226807,1.0049999952316284
1558049858142,-0.9190000295639038,7.901000022888184,0.4300000071525574
1558049858222,-0.8610000014305115,9.050000190734863,-0.20100000500679016
1558049858323,0.05700000002980232,12.708000183105469,0.11400000005960464
1558049858363,0.9860000014305115,13.6850004196167,-0.28700000047683716
1558049858422,-4.318999767303467,9.883000373840332,8.130000114440918
1558049858443,-1.781000018119812,7.948999881744385,6.310999870300293
1558049858502,3.687000036239624,10.744999885559082,-2.930000066757202
1558049858550,-1.378999948501587,9.777999877929688,4.664000034332275
1558049858562,-2.4230000972747803,9.079000473022461,5.074999809265137
1558049858583,-2.614000082015991,7.679999828338623,2.259999990463257
1558049858603,-1.0720000267028809,6.761000156402588,0.8999999761581421
1558049858643,0.9480000138282776,5.401000022888184,-0.3160000145435333
1558049858663,0.9860000014305115,5.783999919891357,-0.28700000047683716
1558049858683,0.6890000104904175,6.750999927520752,-0.2770000100135803
1558049858703,0.28700000047683716,6.961999893188477,0.2290000021457672
1558049858748,0.5360000133514404,8.312000274658203,-0.06700000166893005
1558049858763,0.7559999823570251,8.982999801635742,-0.3160000145435333
1558049858783,0.9760000109672546,9.911999702453613,-0.6320000290870667
1558049858803,0.4779999852180481,11.347999572753906,-0.5360000133514404
1558049858843,0.008999999612569809,13.27299976348877,-0.01899999938905239
1558049858909,-1.6759999990463257,13.934000015258789,4.35699987411499
1558049859045,2.86299991607666,10.40999984741211,-0.9959999918937683
1558049859173,-0.5170000195503235,6.675000190734863,-0.1340000033378601
1558049859502,-1.819000005722046,8.130000114440918,6.2729997634887695
1558049859767,0.11400000005960464,7.6519999504089355,0.05700000002980232
1558049859965,-1.9249999523162842,14.039999961853027,2.2980000972747803
1558049864928,-0.6990000009536743,10.142000198364258,0.2290000021457672
1558049864967,-1.6369999647140503,8.244999885559082,3.0450000762939453
1558049864988,-0.9380000233650208,6.73199987411499,2.010999917984009
1558049865008,-0.5070000290870667,5.783999919891357,0.8899999856948853
1558049865031,0.02800000086426735,5.669000148773193,-0.24899999797344208
1558049865068,0.32499998807907104,6.885000228881836,-0.8999999761581421
1558049865128,0.6790000200271606,8.446999549865723,0.0
1558049865248,-0.15299999713897705,13.130000114440918,-0.6700000166893005
1558049865268,-0.1720000058412552,13.944000244140625,-1.3589999675750732
1558049865294,-1.1490000486373901,14.163999557495117,0.7749999761581421
1558049865327,-1.6759999990463257,10.572999954223633,7.728000164031982
1558049865368,-2.3269999027252197,6.980999946594238,3.2750000953674316
1558049865388,-0.5550000071525574,7.488999843597412,1.2450000047683716
1558049865448,1.7710000276565552,10.447999954223633,-0.29600000381469727
1558049865507,0.29600000381469727,7.2210001945495605,0.9480000138282776
1558049865528,-0.2199999988079071,6.589000225067139,0.6700000166893005
1558049865547,-0.4020000100135803,6.291999816894531,0.8610000014305115
1558049865627,-0.5649999976158142,8.168999671936035,-0.3160000145435333
1558049865667,-1.4170000553131104,9.069000244140625,-0.5550000071525574
1558049865690,-1.4170000553131104,8.619000434875488,-0.45899999141693115
1558049865707,-0.8899999856948853,8.868000030517578,-0.9190000295639038
1558049865787,-0.24899999797344208,13.359999656677246,-1.2640000581741333
1558049865807,-0.10499999672174454,13.215999603271484,-1.49399995803833
1558049865867,-3.312999963760376,10.11299991607666,6.607999801635742
1558049865927,0.765999972820282,8.972999572753906,0.3919999897480011
1558049865954,5.123000144958496,11.012999534606934,-3.1600000858306885
1558049865967,4.098999977111816,10.782999992370605,-2.384000062942505
1558049865987,1.034000039100647,9.510000228881836,-0.11400000005960464
1558049866027,-1.8860000371932983,8.465999603271484,2.747999906539917
1558049866047,-1.9919999837875366,7.010000228881836,1.6369999647140503
1558049866067,-0.7179999947547913,6.02400016784668,0.4690000116825104
1558049866087,0.16200000047683716,5.927999973297119,0.04699999839067459
1558049866153,0.6600000262260437,7.51800012588501,-0.2290000021457672
1558049866207,0.7749999761581421,8.878000259399414,-0.7080000042915344
1558049866227,1.2059999704360962,9.307999610900879,-0.9279999732971191
1558049866267,0.9670000076293945,10.659000396728516,-1.0149999856948853
1558049866307,-0.257999986410141,12.718000411987305,-0.28700000047683716
1558049866327,-0.11400000005960464,13.215999603271484,-1.340000033378601
1558049866350,0.28700000047683716,14.538000106811523,-1.2920000553131104
1558049866416,-3.371000051498413,8.944999694824219,6.942999839782715
1558049866427,-3.2939999103546143,7.986999988555908,4.883999824523926
1558049866447,-1.6369999647140503,7.125,2.259999990463257
1558049866527,1.253999948501587,9.470999717712402,0.8230000138282776
1558049866549,0.5550000071525574,8.791000366210938,1.7999999523162842
1558049866567,0.257999986410141,7.939000129699707,1.034000039100647
1558049866614,-0.3440000116825104,6.359000205993652,0.6990000009536743
1558049866627,-0.5170000195503235,6.550000190734863,0.621999979019165
1558049866647,-0.9959999918937683,7.066999912261963,0.3160000145435333
1558049866667,-0.9380000233650208,7.39300012588501,-0.4399999976158142
1558049866687,-0.6990000009536743,7.728000164031982,-0.8040000200271606
1558049866707,-0.640999972820282,8.446999549865723,-0.9670000076293945
1558049866748,-1.3020000457763672,9.059000015258789,-0.3440000116825104
1558049866787,-0.8809999823570251,9.222000122070312,-0.3630000054836273
1558049866814,-0.4300000071525574,10.77400016784668,-1.090999960899353
1558049866848,-0.20999999344348907,12.909000396728516,-1.378999948501587
1558049866867,-0.02800000086426735,12.833000183105469,-1.5889999866485596
1558049866887,1.9249999523162842,13.138999938964844,-1.9529999494552612
1558049866927,0.4399999976158142,12.335000038146973,4.75
1558049866947,-3.390000104904175,8.206999778747559,7.565000057220459
1558049866968,-2.9590001106262207,7.39300012588501,6.138000011444092
1558049866987,-1.5219999551773071,7.795000076293945,3.0450000762939453
1558049867011,2.3269999027252197,10.324000358581543,-0.4020000100135803
1558049867077,-0.8519999980926514,10.227999687194824,1.781000018119812
1558049867107,-1.3209999799728394,7.642000198364258,2.1059999465942383
1558049867127,-0.9860000014305115,6.51200008392334,1.0429999828338623
1558049867147,-0.5740000009536743,5.572999954223633,0.7369999885559082
1558049867168,-0.14300000667572021,5.534999847412109,0.4300000071525574
1558049867187,0.16200000047683716,6.071000099182129,-0.3160000145435333
1558049867228,0.29600000381469727,7.019999980926514,-0.1809999942779541
1558049867275,0.6990000009536743,8.072999954223633,-0.28700000047683716
1558049867308,0.8899999856948853,9.020999908447266,-0.8999999761581421
1558049867328,1.0240000486373901,9.960000038146973,-1.5889999866485596
1558049867388,0.7940000295639038,12.78499984741211,-0.29600000381469727
1558049867407,0.4880000054836273,13.168000221252441,-1.1200000047683716
1558049867472,-1.3980000019073486,13.10099983215332,6.923999786376953
1558049867487,-2.0199999809265137,10.687999725341797,7.679999828338623
1558049867507,-2.5850000381469727,8.380000114440918,6.0329999923706055
1558049867527,-1.7899999618530273,5.85099983215332,2.7190001010894775
1558049867547,1.7519999742507935,6.750999927520752,-0.8899999856948853
1558049867567,3.734999895095825,8.96399974822998,-1.8860000371932983
1558049867587,3.5910000801086426,11.38700008392334,-1.934000015258789
1558049867607,0.9760000109672546,12.038000106811523,1.656000018119812
1558049867627,-0.8330000042915344,11.38700008392334,3.552999973297119
1558049867687,0.14300000667572021,6.693999767303467,0.2290000021457672
1558049867707,0.37299999594688416,5.985000133514404,0.11400000005960464
1558049867767,-0.3059999942779541,7.163000106811523,-0.2290000021457672
1558049867787,-0.5740000009536743,7.431000232696533,-0.6890000104904175
1558049867807,-0.8999999761581421,7.565000057220459,-0.9480000138282776
1558049867847,-1.1200000047683716,8.121000289916992,-0.5740000009536743
1558049867869,-0.8709999918937683,7.958000183105469,-0.7850000262260437
1558049867907,-0.32499998807907104,9.050000190734863,-1.090999960899353
1558049867934,-0.3160000145435333,10.72599983215332,-1.0049999952316284
1558049867947,-0.3630000054836273,11.722000122070312,-0.746999979019165
1558049867967,-0.6320000290870667,12.498000144958496,-0.9190000295639038
1558049867987,-0.3630000054836273,12.842000007629395,-1.9149999618530273
1558049868007,0.9380000233650208,12.027999877929688,-2.930000066757202
1558049868027,2.98799991607666,13.10099983215332,-2.7190001010894775
1558049868067,-1.9819999933242798,10.572999954223633,5.583000183105469
1558049868087,-3.0929999351501465,9.059000015258789,7.593999862670898
1558049868107,-2.98799991607666,8.656999588012695,5.171000003814697
1558049868168,4.184999942779541,11.559000015258789,-1.3209999799728394
1558049868187,1.6469999551773071,12.229999542236328,-0.5839999914169312
1558049868247,-1.3209999799728394,8.734000205993652,0.3540000021457672
1558049868267,-1.1770000457763672,7.258999824523926,0.1720000058412552
1558049868287,-0.9760000109672546,6.02400016784668,0.20999999344348907
1558049868307,-0.5070000290870667,5.372000217437744,0.20999999344348907
1558049868397,1.2350000143051147,6.617000102996826,-0.45899999141693115
1558049868462,1.034000039100647,8.685999870300293,-1.8380000591278076
1558049868529,0.45899999141693115,12.85200023651123,-1.4259999990463257
1558049868793,-0.6890000104904175,11.942000389099121,1.9819999933242798
1558049869783,-0.5740000009536743,11.09000015258789,2.2309999465942383
1558049869848,-0.44999998807907104,6.043000221252441,0.9480000138282776
1558049869914,0.2680000066757202,5.229000091552734,-0.6700000166893005
1558049870178,-3.505000114440918,9.404000282287598,4.75
1558049903749,-1.4259999990463257,8.35099983215332,6.453999996185303
1558049903815,3.5329999923706055,8.503999710083008,-0.4020000100135803
1558049903947,0.4779999852180481,6.263000011444092,1.8669999837875366
1558049904013,0.3440000116825104,6.5980000495910645,0.3440000116825104
1558049904145,1.4739999771118164,11.597000122070312,-0.5170000195503235
1558049904211,-0.19099999964237213,13.847999572753906,-0.32499998807907104
1558049904277,-1.6080000400543213,11.550000190734863,5.429999828338623
1558049904344,-0.8140000104904175,7.258999824523926,2.5759999752044678
1558049904410,0.8040000200271606,9.892999649047852,0.1340000033378601
1558049904475,-0.7749999761581421,7.258999824523926,1.819000005722046
1558049904541,-0.9190000295639038,7.269000053405762,0.7369999885559082
1558049904607,-1.5800000429153442,8.27400016784668,0.4020000100135803
1558049904673,-0.5070000290870667,8.791000366210938,-1.2450000047683716
1558049908987,-1.1490000486373901,8.255000114440918,-1.7330000400543213
1558049909008,-0.6029999852180481,8.418000221252441,-1.3880000114440918
1558049909036,-0.04699999839067459,8.848999977111816,-0.5450000166893005
1558049909047,-0.0860000029206276,8.723999977111816,-0.6600000262260437
1558049909067,0.008999999612569809,8.897000312805176,-1.1299999952316284
1558049909087,0.4690000116825104,9.767999649047852,-1.503000020980835
1558049909107,0.7749999761581421,11.319999694824219,-1.5219999551773071
1558049909147,0.28700000047683716,12.095000267028809,-1.5219999551773071
1558049909169,0.8330000042915344,10.975000381469727,-2.881999969482422
1558049909248,-2.068000078201294,8.848999977111816,7.0960001945495605
1558049909267,-1.809999942779541,8.59000015258789,3.6389999389648438
1558049909287,-0.3160000145435333,8.552000045776367,0.0860000029206276
1558049909307,2.2980000972747803,11.395999908447266,-1.4550000429153442
1558049909327,1.4459999799728394,12.190999984741211,-0.9670000076293945
1558049909347,0.5170000195503235,11.376999855041504,0.6029999852180481
1558049909407,-3.3610000610351562,6.914000034332275,0.8899999856948853
1558049909432,-0.6890000104904175,6.589000225067139,0.5170000195503235
1558049909447,-0.41100001335144043,6.789999961853027,0.14300000667572021
1558049909487,0.01899999938905239,6.9720001220703125,-1.1490000486373901
1558049909507,0.29600000381469727,7.0,-0.765999972820282
1558049909547,0.28700000047683716,8.03499984741211,-0.5450000166893005
1558049909567,0.02800000086426735,8.427000045776367,-1.5509999990463257
1558049909587,0.20100000500679016,8.753000259399414,-1.9529999494552612
1558049909707,-1.5800000429153442,13.829000473022461,-1.684999942779541
1558049909747,-1.5509999990463257,13.656999588012695,5.908999919891357
1558049909767,-2.6429998874664307,10.888999938964844,6.8379998207092285
1558049909787,-2.441999912261963,8.072999954223633,5.697999954223633
1558049909808,-1.4359999895095825,7.010000228881836,1.340000033378601
1558049909829,-0.32499998807907104,7.39300012588501,-0.5740000009536743
1558049909857,0.1720000058412552,8.704999923706055,-1.2350000143051147
1558049909867,0.6600000262260437,9.595999717712402,-1.1770000457763672
1558049909894,0.1809999942779541,9.854000091552734,0.8140000104904175
1558049909907,0.02800000086426735,9.355999946594238,1.4259999990463257
1558049909927,-0.3540000021457672,8.197999954223633,2.1449999809265137
1558049909947,-0.5450000166893005,7.039000034332275,1.8669999837875366
1558049909988,-1.5609999895095825,7.1539998054504395,0.4020000100135803
1558049910007,-1.7430000305175781,7.699999809265137,0.05700000002980232
1558049910027,-1.7710000276565552,8.321999549865723,0.1340000033378601
1558049910047,-2.0869998931884766,8.388999938964844,-0.14300000667572021
1558049910067,-1.8960000276565552,8.10200023651123,-0.5260000228881836
1558049910093,-1.3589999675750732,8.704999923706055,-1.1770000457763672
1558049910107,-1.0240000486373901,8.791000366210938,-1.350000023841858
1558049910127,-0.5450000166893005,8.560999870300293,-0.9190000295639038
1558049910147,-0.5450000166893005,8.637999534606934,-0.6029999852180481
1558049910167,-0.7940000295639038,9.567000389099121,-0.4399999976158142
1558049910187,-1.0149999856948853,11.588000297546387,-0.3440000116825104
1558049910207,-1.465000033378601,13.168000221252441,-0.1809999942779541
1558049910227,-1.7999999523162842,12.277000427246094,0.3630000054836273
1558049910268,1.2450000047683716,13.302000045776367,-0.7179999947547913
1558049910291,-0.12399999797344208,12.61299991607666,3.505000114440918
1558049910388,1.4170000553131104,12.182000160217285,-2.3359999656677246
1558049910427,-1.465000033378601,11.414999961853027,2.5179998874664307
1558049910489,-1.1200000047683716,6.396999835968018,0.2770000100135803
1558049910588,0.6600000262260437,7.690000057220459,-0.8999999761581421
1558049910607,0.5170000195503235,7.718999862670898,-0.6700000166893005
1558049910752,-0.7749999761581421,12.267999649047852,-0.29600000381469727
1558049910773,-0.9190000295639038,12.871000289916992,-1.2920000553131104
1558049910787,-0.621999979019165,12.996000289916992,-2.556999921798706
1558049910828,-1.7039999961853027,13.647000312805176,2.068000078201294
1558049910968,1.0240000486373901,10.592000007629395,-0.5070000290870667
1558049910987,0.765999972820282,10.975000381469727,0.8999999761581421
1558049911127,-1.7330000400543213,8.043999671936035,0.20999999344348907
1558049911167,-2.000999927520752,8.236000061035156,-0.5929999947547913
1558049911215,-1.3209999799728394,9.097999572753906,-0.5450000166893005
1558049911247,-0.9570000171661377,8.848999977111816,-0.41100001335144043
1558049911267,-0.7850000262260437,9.395000457763672,-0.41100001335144043
1558049911287,-0.8140000104904175,11.319999694824219,-0.28700000047683716
1558049911327,-1.406999945640564,12.85200023651123,-0.20100000500679016
1558049911347,-1.340000033378601,12.019000053405762,-1.0429999828338623
1558049911367,1.2640000581741333,13.168000221252441,-0.7369999885559082
1558049911387,0.7369999885559082,13.293000221252441,2.4509999752044678
1558049911427,-2.9590001106262207,8.878000259399414,6.809000015258789
1558049911467,-1.2730000019073486,7.776000022888184,2.8440001010894775
1558049911507,2.1540000438690186,11.38700008392334,-1.2730000019073486
1558049911527,0.2680000066757202,11.02299976348877,0.41100001335144043
1558049911547,-2.0390000343322754,10.256999969482422,3.0739998817443848
1558049911567,-2.7190001010894775,9.13599967956543,2.6429998874664307
1558049911610,-0.28700000047683716,6.617000102996826,0.14300000667572021
1558049911627,0.20999999344348907,6.196000099182129,-0.4399999976158142
1558049911647,0.4779999852180481,6.4070000648498535,-0.5170000195503235
1558049911727,0.1720000058412552,7.958000183105469,-0.4779999852180481
1558049911747,0.02800000086426735,8.64799976348877,-0.9279999732971191
1558049911787,0.33500000834465027,9.222000122070312,-0.7369999885559082
1558049911874,-0.8330000042915344,12.996000289916992,-1.4359999895095825
1558049911887,-0.7179999947547913,13.331000328063965,-1.9249999523162842
1558049911927,-1.6080000400543213,14.192999839782715,1.6369999647140503
1558049911947,-1.9819999933242798,12.833000183105469,4.616000175476074
1558049911987,-3.9170000553131104,7.872000217437744,4.855000019073486
1558049912047,1.5509999990463257,8.083000183105469,-1.465000033378601
1558049912107,0.29600000381469727,9.98799991607666,2.240999937057495
1558049912127,-0.8420000076293945,8.64799976348877,2.3269999027252197
1558049912147,-0.49799999594688416,7.679999828338623,1.6369999647140503
1558049912167,-0.5740000009536743,7.125,0.4399999976158142
1558049912187,-0.9190000295639038,7.239999771118164,-0.3440000116825104
1558049912207,-1.3020000457763672,7.556000232696533,-0.4300000071525574
1558049912227,-1.5219999551773071,7.986999988555908,-0.24899999797344208
1558049912247,-1.7710000276565552,8.10200023651123,-0.32499998807907104
1558049912307,-1.49399995803833,9.059000015258789,-0.5070000290870667
1558049912347,-1.4839999675750732,8.878000259399414,-0.2770000100135803
1558049912413,-0.6990000009536743,11.807999610900879,-0.7369999885559082
1558049912479,1.5219999551773071,13.829000473022461,-0.8899999856948853
1558049912547,-3.878000020980835,8.991999626159668,6.2729997634887695
1558049917947,2.3550000190734863,12.996000289916992,-0.28700000047683716
1558049918007,-3.552999973297119,7.890999794006348,7.296999931335449
1558049918047,-0.05700000002980232,7.690000057220459,1.7519999742507935
1558049918094,0.382999986410141,11.836999893188477,0.0860000029206276
1558049918107,-0.4880000054836273,11.003999710083008,1.062999963760376
1558049918127,-1.7330000400543213,9.883000373840332,3.0450000762939453
1558049918147,-1.972000002861023,8.619000434875488,2.6040000915527344
1558049918167,-1.465000033378601,7.066999912261963,1.656000018119812
1558049918187,-0.37299999594688416,6.493000030517578,0.45899999141693115
1558049918207,-0.06700000166893005,6.396999835968018,0.05700000002980232
1558049918227,0.14300000667572021,6.578999996185303,-0.32499998807907104
1558049918247,0.04699999839067459,6.875999927520752,-0.7080000042915344
1558049918307,0.4020000100135803,7.61299991607666,-0.12399999797344208
1558049918347,0.0949999988079071,8.600000381469727,-0.29600000381469727
1558049918367,0.2199999988079071,9.595999717712402,-0.621999979019165
1558049918387,0.14300000667572021,10.515000343322754,-1.1299999952316284
1558049918427,-0.4399999976158142,12.996000289916992,-0.06700000166893005
1558049918447,-0.621999979019165,13.704000473022461,-1.3980000019073486
1558049918467,-0.5740000009536743,13.991999626159668,-2.183000087738037
1558049918491,-0.4690000116825104,14.364999771118164,-0.04699999839067459
1558049918588,-1.972000002861023,5.63100004196167,2.5369999408721924
1558049918608,0.5450000166893005,7.4029998779296875,-0.765999972820282
1558049918648,1.5889999866485596,9.567000389099121,-1.3209999799728394
1558049918688,-0.6600000262260437,9.652999877929688,3.6679999828338623
1558049918708,-1.1009999513626099,7.6519999504089355,3.25600004196167
1558049918768,-1.378999948501587,7.440999984741211,0.0
1558049918888,-1.4459999799728394,8.96399974822998,-0.4779999852180481
1558049918953,-0.3440000116825104,10.831000328063965,0.06700000166893005
1558049918988,-1.5800000429153442,13.081999778747559,-0.11400000005960464
1558049919088,-2.930000066757202,8.791000366210938,7.747000217437744
1558049919108,-3.303999900817871,8.723999977111816,6.234000205993652
1558049919247,-1.531999945640564,7.133999824523926,0.9190000295639038
1558049919267,-0.6990000009536743,6.464000225067139,0.5070000290870667
1558049919307,-0.14300000667572021,5.85099983215332,-0.29600000381469727
1558049919327,0.2290000021457672,6.004000186920166,-0.4690000116825104
1558049919349,0.4880000054836273,6.263000011444092,-0.24899999797344208
1558049919368,0.765999972820282,6.607999801635742,-0.3630000054836273
1558049919447,0.5450000166893005,9.86400032043457,-1.340000033378601
1558049919467,0.19099999964237213,10.581999778747559,-1.2730000019073486
1558049919487,-0.1720000058412552,11.673999786376953,-0.14300000667572021
1558049919547,-1.1390000581741333,13.522000312805176,-2.671999931335449
1558049919567,-0.6600000262260437,14.135000228881836,0.04699999839067459
1558049919613,-2.4700000286102295,11.414999961853027,6.224999904632568
1558049919647,-3.562000036239624,7.315999984741211,4.510000228881836
1558049919667,-1.7710000276565552,6.914000034332275,1.7519999742507935
1558049919687,0.8899999856948853,7.909999847412109,-0.9279999732971191
1558049919728,1.8960000276565552,9.902000427246094,-1.1490000486373901
1558049919747,1.2640000581741333,9.73900032043457,0.7559999823570251
1558049919828,-0.9480000138282776,7.4029998779296875,1.1770000457763672
1558049919847,-1.2059999704360962,7.105999946594238,0.9760000109672546
1558049919877,-1.2640000581741333,7.4029998779296875,0.14300000667572021
1558049919908,-1.4550000429153442,7.728000164031982,-0.3160000145435333
1558049919967,-1.6369999647140503,8.819999694824219,-0.2770000100135803
1558049920028,-0.7369999885559082,10.1899995803833,-0.5070000290870667
1558049920047,-0.6510000228881836,11.63599967956543,-0.4779999852180481
1558049920074,-1.3589999675750732,13.071999549865723,-0.4880000054836273
1558049920107,-0.1720000058412552,12.4399995803833,-1.4259999990463257
1558049920127,1.819000005722046,12.890000343322754,-0.8230000138282776
1558049920147,1.684999942779541,12.78499984741211,2.3269999027252197
1558049920167,-1.5130000114440918,10.611000061035156,7.125
1558049920187,-2.6619999408721924,8.465999603271484,7.747000217437744
1558049920207,-2.747999906539917,8.27400016784668,5.8420000076293945
1558049920248,1.253999948501587,9.73900032043457,-0.4020000100135803
1558049920274,1.7139999866485596,12.258000373840332,-0.5450000166893005
1558049920288,0.257999986410141,10.831000328063965,0.8330000042915344
1558049920368,-0.257999986410141,6.521999835968018,0.3630000054836273
1558049920428,-0.07599999755620956,6.9720001220703125,-0.5170000195503235
1558049920471,0.45899999141693115,7.382999897003174,-0.0949999988079071
1558049920488,0.6990000009536743,7.642000198364258,0.05700000002980232
1558049920508,0.5170000195503235,8.217000007629395,-0.4779999852180481
1558049920548,0.6510000228881836,9.088000297546387,-1.062999963760376
1558049920648,-0.7179999947547913,14.375,-2.125999927520752
1558049920735,-3.246000051498413,7.574999809265137,4.375999927520752
1558049920747,-2.5280001163482666,6.761000156402588,3.2750000953674316
1558049920828,1.090999960899353,10.008000373840332,0.9670000076293945
1558049920847,1.062999963760376,10.199000358581543,1.8960000276565552
1558049920887,0.2290000021457672,7.0960001945495605,0.8230000138282776
1558049920908,0.03799999877810478,6.501999855041504,0.7850000262260437
1558049920932,-0.5450000166893005,6.521999835968018,0.28700000047683716
1558049920987,-1.2829999923706055,7.814000129699707,-0.1340000033378601
1558049921008,-1.7330000400543213,8.092000007629395,0.0
1558049921067,-1.215999960899353,9.097999572753906,-0.2770000100135803
1558049921087,-1.090999960899353,8.9350004196167,-0.7369999885559082
1558049921107,-0.7179999947547913,9.097999572753906,-1.0149999856948853
1558049921267,-2.509000062942505,9.682000160217285,6.482999801635742
1558049921373,-0.44999998807907104,10.927000045776367,0.4020000100135803
1558049921439,-0.6119999885559082,6.493000030517578,1.7999999523162842
1558049921505,-0.06700000166893005,6.7129998207092285,-0.6029999852180481
1558049965085,-1.1490000486373901,7.958000183105469,-0.20100000500679016
1558049965130,-1.1200000047683716,8.791000366210938,-0.8040000200271606
1558049965262,-2.3459999561309814,12.23900032043457,-0.9190000295639038
1558049965394,0.1720000058412552,7.355000019073486,1.3209999799728394
1558049965460,0.6510000228881836,9.682000160217285,-0.04699999839067459
1558049965527,-2.5759999752044678,7.574999809265137,0.8610000014305115
1558049965659,0.8330000042915344,7.61299991607666,-0.5070000290870667
1558049965725,-0.03799999877810478,9.366000175476074,-0.14300000667572021
1558049965791,0.2290000021457672,13.062999725341797,-1.49399995803833
1558049965857,-1.6660000085830688,14.920999526977539,5.50600004196167
1558049965923,-2.0390000343322754,5.6020002365112305,2.2119998931884766
1558049966055,-0.3540000021457672,8.734000205993652,2.4509999752044678
1558049966121,-1.312000036239624,8.206999778747559,0.9959999918937683
1558049966187,-0.8140000104904175,8.053999900817871,0.29600000381469727
1558049975392,1.2350000143051147,11.175999641418457,-0.3160000145435333
1558049975458,-0.8610000014305115,7.804999828338623,0.8040000200271606
1558049975524,1.1490000486373901,6.684000015258789,-1.0049999952316284
1558049975590,1.2640000581741333,7.939000129699707,-0.5929999947547913
1558049975656,1.2350000143051147,8.8100004196167,-1.340000033378601
1558049975722,0.8140000104904175,10.831000328063965,-0.23899999260902405
1558049975788,0.9480000138282776,13.991999626159668,-0.8610000014305115
1558049975986,2.1059999465942383,9.366000175476074,1.9529999494552612
1558049976052,-0.24899999797344208,8.475000381469727,0.6700000166893005
1558049976118,-0.5170000195503235,7.986999988555908,-0.5740000009536743
1558049976251,-0.07599999755620956,8.83899974822998,-0.6700000166893005
1558049976317,0.3919999897480011,11.425000190734863,-1.1299999952316284
1558049976581,0.4779999852180481,9.307999610900879,1.5700000524520874
1558049976779,1.312000036239624,8.062999725341797,-1.2730000019073486
1558049976866,0.3630000054836273,10.706999778747559,-0.4020000100135803
1558049976878,0.4779999852180481,10.916999816894531,-0.37299999594688416
1558049976898,0.37299999594688416,11.684000015258789,-1.2640000581741333
1558049976918,0.3630000054836273,11.779000282287598,-2.6429998874664307
1558049976958,2.000999927520752,14.192999839782715,0.4880000054836273
1558049976978,0.0,12.774999618530273,6.310999870300293
1558049977038,-1.4259999990463257,7.718999862670898,-1.8380000591278076
1558049977064,2.4700000286102295,10.11299991607666,-2.3269999027252197
1558049977119,2.2980000972747803,12.086000442504883,0.9190000295639038
1558049977138,1.062999963760376,10.581999778747559,2.384000062942505
1558049977218,-0.5450000166893005,6.11899995803833,-0.5170000195503235
1558049977238,-0.32499998807907104,6.320000171661377,-0.45899999141693115
1558049977298,-0.8140000104904175,6.8379998207092285,-1.225000023841858
1558049977338,-0.3919999897480011,8.092000007629395,-0.9670000076293945
1558049977358,-0.23899999260902405,8.293000221252441,-0.9380000233650208
1558049977378,0.0,8.781999588012695,-1.1770000457763672
1558049977398,0.28700000047683716,9.404000282287598,-0.621999979019165
1558049977418,0.14300000667572021,10.687999725341797,-0.45899999141693115
1558049977438,-0.4690000116825104,12.12399959564209,-1.2450000047683716
1558049977478,0.7369999885559082,11.253000259399414,-1.5700000524520874
1558049977498,2.9590001106262207,13.206000328063965,-1.503000020980835
1558049977538,-1.1200000047683716,10.246999740600586,6.11899995803833
1558049977558,-2.240999937057495,10.572999954223633,6.177000045776367
1558049977578,-0.23899999260902405,11.21399974822998,0.5450000166893005
1558049977598,2.671999931335449,12.41100025177002,-2.556999921798706
1558049977618,3.8970000743865967,14.230999946594238,-1.9249999523162842
1558049977638,0.7559999823570251,13.387999534606934,2.1540000438690186
1558049977658,-0.7179999947547913,11.932999610900879,2.632999897003174
1558049977678,-1.8860000371932983,9.116999626159668,1.1100000143051147
1558049977699,-1.4170000553131104,7.355000019073486,-0.9860000014305115
1558049977724,0.05700000002980232,5.794000148773193,-1.0820000171661377
1558049977738,0.01899999938905239,5.304999828338623,-1.0149999856948853
1558049977758,0.1720000058412552,5.6020002365112305,-1.0820000171661377
1558049977778,0.23899999260902405,5.822000026702881,-0.6890000104904175
1558049977798,0.2680000066757202,5.918000221252441,-0.6890000104904175
1558049977818,1.2350000143051147,5.947000026702881,-1.6369999647140503
1558049977839,1.3980000019073486,6.204999923706055,-2.1059999465942383
1558049977858,1.5889999866485596,6.664999961853027,-2.1540000438690186
1558049977878,1.934000015258789,7.010000228881836,-2.259999990463257
1558049977898,1.406999945640564,8.043999671936035,-2.1740000247955322
1558049977921,0.44999998807907104,10.027000427246094,-1.2920000553131104
1558049977938,0.8330000042915344,11.291000366210938,-1.406999945640564
1558049977958,1.340000033378601,12.29699993133545,-2.86299991607666
1558049977988,1.531999945640564,11.692999839782715,-2.815000057220459
1558049977998,1.2450000047683716,11.722000122070312,-2.4700000286102295
1558049978018,0.9959999918937683,13.484000205993652,-1.4550000429153442
1558049978038,2.059000015258789,12.996000289916992,4.855000019073486
1558049978058,-2.499000072479248,10.946000099182129,8.043999671936035
1558049978078,-4.635000228881836,10.0649995803833,3.944999933242798
1558049978138,4.031000137329102,14.355999946594238,-0.2290000021457672
1558049978158,4.318999767303467,12.746999740600586,-0.4779999852180481
1558049978198,0.9480000138282776,9.510000228881836,0.5740000009536743
1558049978218,0.5839999914169312,7.239999771118164,1.1579999923706055
1558049978238,0.44999998807907104,5.888999938964844,0.6890000104904175
1558049978258,0.4020000100135803,5.315000057220459,-0.3919999897480011
1558049978278,0.4020000100135803,4.7210001945495605,-1.1770000457763672
1558049978318,0.0860000029206276,4.883999824523926,-1.0149999856948853
1558049978338,-0.20999999344348907,5.861000061035156,-0.8899999856948853
1558049978384,-0.15299999713897705,7.872000217437744,0.02800000086426735
1558049978398,-0.05700000002980232,8.244999885559082,0.16200000047683716
1558049978438,0.0949999988079071,11.82699966430664,-0.20100000500679016
1558049978458,0.16200000047683716,13.723999977111816,-0.6320000290870667
1558049978518,2.5950000286102295,13.46500015258789,-1.9630000591278076
1558049978582,-2.010999917984009,9.595999717712402,7.51800012588501
1558049978598,-1.6369999647140503,9.173999786376953,6.4070000648498535
1558049978618,0.45899999141693115,6.817999839782715,2.2690000534057617
1558049978647,4.539000034332275,11.607000350952148,-2.4609999656677246
1558049978658,3.8399999141693115,12.008999824523926,-2.3459999561309814
1558049978678,1.7230000495910645,11.300999641418457,0.11400000005960464
1558049978698,0.05700000002980232,10.458000183105469,2.125999927520752
1558049978718,-1.312000036239624,8.944999694824219,3.4189999103546143
1558049978738,-1.7139999866485596,7.058000087738037,2.375
1558049978758,-0.23899999260902405,5.7270002365112305,1.5219999551773071
1558049978798,0.9959999918937683,6.02400016784668,-1.062999963760376
1558049978818,0.9959999918937683,6.589000225067139,-1.0429999828338623
1558049978846,1.406999945640564,7.210999965667725,-0.7369999885559082
1558049978858,1.4170000553131104,7.0960001945495605,-0.4020000100135803
1558049978878,1.4359999895095825,7.382999897003174,-0.41100001335144043
1558049978898,1.2059999704360962,8.781999588012695,-1.0820000171661377
1558049978918,1.034000039100647,9.145999908447266,-1.2920000553131104
1558049978938,1.090999960899353,9.701000213623047,-1.1770000457763672
1558049978958,0.6700000166893005,10.696999549865723,-1.0429999828338623
1558049978998,0.5450000166893005,12.267999649047852,-0.3540000021457672
1558049979018,0.3919999897480011,12.97700023651123,-1.9149999618530273
1558049979044,0.7749999761581421,14.163999557495117,-2.930000066757202
1558049979058,0.6320000290870667,14.32699966430664,-0.8330000042915344
1558049979078,0.04699999839067459,13.857999801635742,3.572000026702881
1558049979098,-1.934000015258789,11.904000282287598,7.585000038146973
1558049979138,-2.4130001068115234,7.4120001792907715,3.6679999828338623
1558049979158,-0.37299999594688416,7.660999774932861,0.1340000033378601
1558049979178,1.0429999828338623,8.092000007629395,-1.5700000524520874
1558049979198,2.546999931335449,8.88700008392334,-2.115999937057495
1558049979319,-1.0720000267028809,7.631999969482422,1.1770000457763672
1558049979339,-1.215999960899353,7.814000129699707,0.3919999897480011
1558049979459,-0.3059999942779541,9.01200008392334,-0.4779999852180481
1558049979506,-0.2680000066757202,9.355999946594238,0.4399999976158142
1558049979558,-0.3630000054836273,12.210000038146973,-0.2290000021457672
1558049979619,2.3459999561309814,12.095000267028809,0.9380000233650208
1558049979639,0.20100000500679016,10.803000450134277,5.486999988555908
1558049979704,0.2290000021457672,10.64900016784668,2.2119998931884766
1558049979739,1.8480000495910645,13.053000450134277,-0.9480000138282776
1558049979758,1.1200000047683716,11.684000015258789,0.8140000104904175
1558049979779,0.2290000021457672,10.151000022888184,2.193000078201294
1558049979799,-0.7269999980926514,8.22599983215332,2.2690000534057617
1558049979858,0.3919999897480011,5.7170000076293945,0.24899999797344208
1558049979879,0.7369999885559082,6.51200008392334,-0.3160000145435333
1558049979902,0.746999979019165,6.923999786376953,-0.6029999852180481
1558049979967,1.6950000524520874,8.27400016784668,-0.621999979019165
1558049980038,1.5410000085830688,10.1899995803833,-1.7519999742507935
1558049980058,1.2059999704360962,10.793000221252441,-0.28700000047683716
1558049980078,0.640999972820282,11.95199966430664,-0.1809999942779541
1558049980099,-0.1340000033378601,13.10099983215332,-1.6180000305175781
1558049980118,-0.07599999755620956,13.293000221252441,-2.556999921798706
1558049980138,0.4020000100135803,13.866999626159668,-0.9480000138282776
1558049980165,0.23899999260902405,12.928999900817871,3.8299999237060547
1558049980231,-1.628000020980835,6.953000068664551,1.9630000591278076
1558049980298,2.193000078201294,10.28499984741211,-0.5550000071525574
1558049981156,0.8610000014305115,10.543999671936035,-0.8610000014305115
1558049981222,-0.02800000086426735,13.427000045776367,-2.872999906539917
1558049981287,-0.9190000295639038,11.329000473022461,5.6020002365112305
1558049981353,-0.11400000005960464,7.34499979019165,0.14300000667572021
1558049981485,0.01899999938905239,7.861999988555908,0.5740000009536743
1558049981617,-1.225000023841858,8.734000205993652,-0.7179999947547913
1558049985965,-0.23899999260902405,6.693999767303467,1.4550000429153442
1558049985985,-0.4300000071525574,6.493000030517578,1.062999963760376
1558049986005,-0.8999999761581421,7.039000034332275,0.6600000262260437
1558049986025,-0.9480000138282776,7.61299991607666,0.28700000047683716
1558049986045,-1.0720000267028809,8.217000007629395,0.3440000116825104
1558049986065,-1.2920000553131104,8.187999725341797,0.7080000042915344
1558049986085,-1.8769999742507935,7.909999847412109,0.41100001335144043
1558049986105,-1.9529999494552612,8.791000366210938,0.0
1558049986145,-0.9380000233650208,9.088000297546387,-0.1720000058412552
1558049986166,-0.44999998807907104,9.538000106811523,-0.06700000166893005
1558049986225,-0.5740000009536743,12.97700023651123,-0.8330000042915344
1558049986246,-2.068000078201294,13.138999938964844,0.1809999942779541
1558049986266,-2.4700000286102295,13.187000274658203,-0.5360000133514404
1558049986286,-0.8610000014305115,14.336000442504883,0.23899999260902405
1558049986345,-5.918000221252441,9.355999946594238,6.914000034332275
1558049986366,-2.1059999465942383,7.479000091552734,5.171000003814697
1558049986395,-0.1809999942779541,7.671000003814697,0.4779999852180481
1558049986406,0.3160000145435333,8.072999954223633,-0.5360000133514404
1558049986426,0.9959999918937683,8.800999641418457,-0.28700000047683716
1558049986545,-0.5360000133514404,6.493000030517578,1.1490000486373901
1558049986645,0.45899999141693115,8.303000450134277,0.7749999761581421
1558049986685,-0.008999999612569809,9.652999877929688,-0.4779999852180481
1558049986745,-1.2450000047683716,11.770000457763672,-0.11400000005960464
1558049986765,-1.5609999895095825,13.090999603271484,0.16200000047683716
1558049986791,-1.934000015258789,14.930000305175781,-0.8140000104904175
1558049986805,-1.406999945640564,15.083999633789062,0.765999972820282
1558049986825,-1.36899995803833,15.055000305175781,3.5239999294281006
1558049986845,-1.944000005722046,15.015999794006348,6.645999908447266
1558049986865,-3.063999891281128,12.019000053405762,7.210999965667725
1558049986885,-3.5910000801086426,8.494000434875488,6.415999889373779
1558049986905,-0.14300000667572021,6.24399995803833,3.802000045776367
1558049986925,1.5219999551773071,6.750999927520752,-0.2770000100135803
1558049986945,2.3459999561309814,7.2210001945495605,-1.6369999647140503
1558049986965,1.6180000305175781,8.072999954223633,-0.5929999947547913
1558049986989,0.33500000834465027,8.284000396728516,2.1640000343322754
1558049987005,-0.5450000166893005,8.22599983215332,4.098999977111816
1558049987025,-1.7899999618530273,7.660999774932861,4.960000038146973
1558049987054,-2.183000087738037,7.479000091552734,4.28000020980835
1558049987065,-2.1640000343322754,7.604000091552734,4.078999996185303
1558049987085,-1.9529999494552612,7.814000129699707,3.8589999675750732
1558049987105,-1.934000015258789,7.440999984741211,3.447000026702881
1558049987125,-2.010999917984009,7.479000091552734,2.930000066757202
1558049987145,-1.5609999895095825,7.296999931335449,2.632999897003174
1558049987165,-1.3209999799728394,7.230000019073486,2.2880001068115234
1558049987186,-1.062999963760376,7.556000232696533,1.9819999933242798
1558049987205,-0.7749999761581421,7.8429999351501465,1.7519999742507935
1558049987225,-0.621999979019165,8.359999656677246,1.225000023841858
1558049987265,-0.06700000166893005,9.729999542236328,1.062999963760376
1558049987285,-0.02800000086426735,10.458000183105469,1.062999963760376
1558049987305,0.14300000667572021,11.253000259399414,1.5410000085830688
1558049987325,0.2199999988079071,12.354000091552734,1.6080000400543213
1558049987345,0.0860000029206276,13.015000343322754,1.4359999895095825
1558049987365,-0.20100000500679016,13.331000328063965,1.1100000143051147
1558049987386,-0.9760000109672546,14.135000228881836,2.193000078201294
1558049987405,-1.090999960899353,14.12600040435791,5.0279998779296875
1558049987425,-1.406999945640564,11.741000175476074,6.091000080108643
1558049987451,-0.7269999980926514,8.217000007629395,6.434999942779541
1558049987465,-0.3919999897480011,7.51800012588501,5.802999973297119
1558049987485,0.37299999594688416,7.928999900817871,4.586999893188477
1558049987505,1.5700000524520874,8.88700008392334,3.993000030517578
1558049987525,1.1679999828338623,9.395000457763672,3.821000099182129
1558049987545,0.7179999947547913,9.385000228881836,2.815000057220459
1558049987565,-0.04699999839067459,8.666999816894531,2.4700000286102295
1558049987585,-0.20999999344348907,8.111000061035156,3.6679999828338623
1558049987605,-0.28700000047683716,7.51800012588501,3.9739999771118164
1558049987625,0.4020000100135803,6.73199987411499,3.802000045776367
1558049987648,0.9380000233650208,6.320000171661377,3.0350000858306885
1558049987665,1.1679999828338623,6.099999904632568,2.010999917984009
1558049987685,0.8709999918937683,5.775000095367432,1.0429999828338623
1558049987714,0.6029999852180481,5.736000061035156,0.45899999141693115
1558049987725,0.5070000290870667,5.775000095367432,0.45899999141693115
1558049987765,0.5450000166893005,6.809000015258789,1.5800000429153442
1558049987785,0.4020000100135803,7.382999897003174,1.7519999742507935
1558049987847,0.3160000145435333,10.180000305175781,0.4779999852180481
1558049987865,0.6700000166893005,11.980999946594238,0.7749999761581421
1558049987913,0.11400000005960464,14.538000106811523,0.4779999852180481
1558049987965,-0.10499999672174454,14.145000457763672,2.6519999504089355
1558049988045,-1.1770000457763672,5.822000026702881,5.688000202178955
1558049988066,0.746999979019165,5.918000221252441,3.371000051498413
1558049988086,1.5800000429153442,7.066999912261963,2.183000087738037
1558049988110,1.7039999961853027,8.494000434875488,1.4359999895095825
1558049988226,-0.6600000262260437,7.182000160217285,2.4130001068115234
1558049988285,-0.7559999823570251,7.699999809265137,1.6180000305175781
1558049988325,-0.7749999761581421,7.853000164031982,1.350000023841858
1558049988445,0.33500000834465027,9.480999946594238,0.7179999947547913
1558049988465,0.5740000009536743,10.821999549865723,0.7749999761581421
1558049988485,0.4300000071525574,11.779000282287598,1.090999960899353
1558049988506,0.5360000133514404,12.29699993133545,0.6700000166893005
1558049988525,0.7269999980926514,12.78499984741211,0.06700000166893005
1558049988545,1.2450000047683716,12.842000007629395,-0.28700000047683716
1558049988572,1.6080000400543213,14.442000389099121,1.9149999618530273
1558049988585,1.2450000047683716,13.541999816894531,2.8340001106262207
1558049988625,-1.6469999551773071,10.027000427246094,6.204999923706055
1558049988685,2.86299991607666,6.568999767303467,1.6369999647140503
1558049988725,1.7230000495910645,9.173999786376953,1.0820000171661377
1558049988745,0.28700000047683716,9.059000015258789,2.115999937057495
1558049988785,-0.15299999713897705,9.567000389099121,2.9010000228881836
1558049988805,0.4020000100135803,8.619000434875488,1.9819999933242798
1558049988825,1.0429999828338623,7.5269999504089355,1.7519999742507935
1558049988845,1.6469999551773071,6.866000175476074,0.8899999856948853
1558049988865,1.7330000400543213,6.761000156402588,0.45899999141693115
1558049988885,1.5219999551773071,6.953000068664551,0.11400000005960464
1558049988905,1.225000023841858,7.355000019073486,0.2290000021457672
1558049988925,0.7179999947547913,7.34499979019165,0.02800000086426735
1558049988945,0.6600000262260437,7.61299991607666,0.3160000145435333
1558049988985,1.3309999704360962,8.187999725341797,-0.3440000116825104
1558049989005,1.3020000457763672,8.380000114440918,-0.6700000166893005
1558049989034,1.2920000553131104,9.633999824523926,-1.1970000267028809
1558049989045,1.350000023841858,9.960000038146973,-1.1200000047683716
1558049989065,1.5989999771118164,10.678000450134277,-0.29600000381469727
1558049989105,0.5170000195503235,13.053000450134277,-1.1579999923706055
1558049989125,0.3059999942779541,12.928999900817871,-1.6369999647140503
1558049989145,1.0049999952316284,13.187000274658203,-1.225000023841858
1558049989166,0.37299999594688416,12.708000183105469,2.375
1558049989205,-1.2059999704360962,10.534000396728516,6.434999942779541
1558049989232,-1.1490000486373901,7.631999969482422,4.367000102996826
1558049989245,-0.5170000195503235,7.077000141143799,3.13100004196167
1558049989265,1.934000015258789,6.961999893188477,1.1009999513626099
1558049989285,3.006999969482422,7.776000022888184,-0.5070000290870667
1558049989305,2.8529999256134033,8.71500015258789,-0.6990000009536743
1558049989325,2.0490000247955322,9.67199993133545,0.05700000002980232
1558049989392,0.6029999852180481,8.10200023651123,2.3269999027252197
1558049989457,-0.11400000005960464,7.660999774932861,1.2730000019073486
1558050011144,-0.6510000228881836,8.446999549865723,0.2770000100135803
1558050011204,-0.37299999594688416,9.001999855041504,-0.1720000058412552
1558050011270,-0.11400000005960464,9.529000282287598,-0.20100000500679016
1558050011336,-0.4300000071525574,11.692999839782715,-0.1720000058412552
1558050011402,2.2690000534057617,12.862000465393066,0.7559999823570251
1558050011468,-2.5280001163482666,8.619000434875488,6.550000190734863
1558050011601,-0.14300000667572021,8.906000137329102,1.1579999923706055
1558050011666,0.14300000667572021,7.928999900817871,0.29600000381469727
1558050011732,1.3209999799728394,7.355000019073486,-0.28700000047683716
1558050011798,0.6029999852180481,8.71500015258789,0.14300000667572021
1558050011864,1.1299999952316284,11.223999977111816,-0.7080000042915344
1558050011996,-1.2730000019073486,11.031999588012695,5.85099983215332
1558050012128,2.4030001163482666,9.720000267028809,0.7080000042915344
1558050012194,0.1720000058412552,7.958000183105469,2.2309999465942383
1558050012260,-0.02800000086426735,8.484999656677246,0.5070000290870667
1558050015912,-0.15299999713897705,9.001999855041504,-0.5070000290870667
1558050015977,0.3630000054836273,12.161999702453613,-0.4880000054836273
1558050016043,3.0260000228881836,13.906000137329102,0.14300000667572021
1558050016109,-1.5609999895095825,8.03499984741211,6.434999942779541
1558050016175,3.993000030517578,9.480999946594238,-1.49399995803833
1558050016241,-0.8809999823570251,9.298999786376953,3.3420000076293945
1558050016307,0.7940000295639038,6.894999980926514,-0.2770000100135803
1558050021370,-0.37299999594688416,7.795000076293945,0.16200000047683716
1558050021436,-0.6600000262260437,7.671000003814697,-0.7179999947547913
1558050021502,-0.6119999885559082,8.991999626159668,-0.4300000071525574
1558050021568,0.0949999988079071,11.645000457763672,-0.8330000042915344
1558050021634,2.4130001068115234,11.913000106811523,-3.13100004196167
1558050021700,-1.6080000400543213,11.779000282287598,6.501999855041504
1558050022096,1.1970000267028809,9.298999786376953,-1.0149999856948853
1558050022162,0.1720000058412552,12.277000427246094,-0.16200000047683716
1558050022228,1.312000036239624,13.598999977111816,0.06700000166893005
1558050022294,-2.4030001163482666,8.619000434875488,6.482999801635742
1558050022361,1.350000023841858,8.916000366210938,-0.765999972820282
1558050028641,2.0390000343322754,3.063999891281128,7.5269999504089355
1558050028772,1.6950000524520874,2.240999937057495,9.107000350952148
1558050028792,2.115999937057495,2.2019999027252197,9.54800033569336
1558050028893,-0.4300000071525574,3.763000011444092,9.538000106811523
1558050028934,0.5740000009536743,2.9210000038146973,9.614999771118164
1558050029013,1.090999960899353,3.821000099182129,8.39900016784668
1558050029143,1.465000033378601,3.628999948501587,9.039999961853027
1558050029237,0.7179999947547913,3.3519999980926514,9.395000457763672
1558050029313,0.7269999980926514,3.427999973297119,9.039999961853027
1558050029479,0.4300000071525574,3.2170000076293945,9.020999908447266
1558050029514,0.4779999852180481,3.303999900817871,9.088000297546387
1558050029553,0.41100001335144043,3.1500000953674316,9.614999771118164
1558050029614,-0.02800000086426735,3.4860000610351562,9.366000175476074
1558050029694,0.03799999877810478,3.5910000801086426,8.59000015258789
1558050029715,-0.04699999839067459,3.5239999294281006,8.972999572753906
1558050029740,-0.15299999713897705,3.4760000705718994,9.461999893188477
1558050029756,0.11400000005960464,3.7249999046325684,9.20300006866455
1558050029772,0.3160000145435333,3.8499999046325684,8.743000030517578
1558050029855,0.3540000021457672,3.437999963760376,9.020999908447266
1558050029874,0.3919999897480011,3.303999900817871,9.01200008392334
1558050029894,0.3540000021457672,3.303999900817871,9.039999961853027
1558050029920,0.4300000071525574,3.246000051498413,8.991999626159668
1558050029973,0.3540000021457672,3.0450000762939453,9.347000122070312
1558050030014,0.3540000021457672,3.0160000324249268,9.54800033569336
1558050030099,0.44999998807907104,3.0929999351501465,9.232000350952148
1558050030156,0.5550000071525574,3.0350000858306885,9.413999557495117
1558050030173,0.6029999852180481,3.006999969482422,9.241000175476074
1558050030273,0.9190000295639038,3.121999979019165,9.241000175476074
1558050030294,0.7559999823570251,3.0829999446868896,9.088000297546387
1558050030314,0.8140000104904175,3.236999988555908,9.194000244140625
1558050030337,0.746999979019165,3.13100004196167,9.107000350952148
1558050030375,0.640999972820282,3.178999900817871,9.059000015258789
1558050030402,0.6029999852180481,3.1700000762939453,9.385000228881836
1558050030413,0.37299999594688416,3.1600000858306885,9.5
1558050030433,0.257999986410141,3.25600004196167,9.279999732971191
1558050030494,0.1340000033378601,3.25600004196167,9.194000244140625
1558050030553,0.11400000005960464,3.2079999446868896,9.25100040435791
1558050030628,0.0860000029206276,3.4660000801086426,9.154999732971191
1558050030633,-0.05700000002980232,3.5139999389648438,9.020999908447266
1558050030693,-0.2199999988079071,3.7920000553131104,8.321999549865723
1558050030735,0.16200000047683716,3.821000099182129,8.925000190734863
1558050030753,0.5550000071525574,4.107999801635742,9.385000228881836
1558050030773,0.3160000145435333,4.01200008392334,9.13599967956543
1558050030793,0.24899999797344208,3.8970000743865967,8.8100004196167
1558050030833,-0.20100000500679016,3.802000045776367,8.427000045776367
1558050030913,0.20999999344348907,3.2939999103546143,9.586000442504883
1558050030935,0.11400000005960464,3.246000051498413,9.682000160217285
1558050030955,-0.0949999988079071,3.3320000171661377,9.413999557495117
1558050030973,-0.008999999612569809,3.3610000610351562,9.020999908447266
1558050031056,0.24899999797344208,3.5429999828338623,9.020999908447266
1558050031122,0.2290000021457672,3.5139999389648438,8.71500015258789
1558050031133,0.257999986410141,3.552999973297119,8.532999992370605
1558050031254,-0.0860000029206276,3.371000051498413,9.347000122070312
1558050031273,-0.1720000058412552,3.303999900817871,9.307999610900879
1558050031394,-0.0860000029206276,3.5429999828338623,8.656999588012695
1558050031433,0.16200000047683716,3.6480000019073486,9.107000350952148
1558050031453,0.07599999755620956,3.677000045776367,9.050000190734863
1558050031518,-0.03799999877810478,3.609999895095825,9.050000190734863
1558050031533,-0.02800000086426735,3.5910000801086426,9.050000190734863
1558050031599,-0.05700000002980232,3.25600004196167,9.57699966430664
1558050031633,-0.2770000100135803,3.437999963760376,9.126999855041504
1558050031653,-0.11400000005960464,4.145999908447266,9.20300006866455
1558050031716,-0.8330000042915344,3.888000011444092,8.64799976348877
1558050031732,-0.7940000295639038,4.2129998207092285,8.513999938964844
1558050031793,-0.621999979019165,4.664000034332275,8.560999870300293
1558050031836,-1.1579999923706055,4.710999965667725,8.053999900817871
1558050031852,-1.36899995803833,4.519999980926514,8.015999794006348
1558050031892,-1.215999960899353,4.769000053405762,8.303000450134277
1558050031914,-0.7749999761581421,4.932000160217285,8.772000312805176
1558050032033,-0.1809999942779541,4.126999855041504,9.652999877929688
1558050032052,-0.11400000005960464,4.28000020980835,9.682000160217285
1558050032121,-0.1809999942779541,3.993000030517578,8.369999885559082
1558050032139,-0.11400000005960464,3.9549999237060547,8.140000343322754
1558050032194,0.1340000033378601,3.944999933242798,8.64799976348877
1558050032233,0.4690000116825104,3.6480000019073486,8.762999534606934
1558050032273,0.2680000066757202,3.7060000896453857,8.359999656677246
1558050032292,0.19099999964237213,3.763000011444092,8.437000274658203
1558050032392,0.14300000667572021,3.390000104904175,9.54800033569336
