timestamp,AccX,AccY,AccZ
1558048925778,-0.4020000100135803,3.7249999046325684,9.088000297546387
1558048925816,-0.3160000145435333,3.7149999141693115,9.020999908447266
1558048925876,-0.4020000100135803,3.7060000896453857,9.298999786376953
1558048925942,-0.14300000667572021,3.944999933242798,9.001999855041504
1558048926077,-0.14300000667572021,3.936000108718872,9.001999855041504
1558048926140,-0.257999986410141,3.944999933242798,8.666999816894531
1558048926272,-0.257999986410141,3.878000020980835,8.857999801635742
1558048926404,-0.04699999839067459,3.993000030517578,9.020999908447266
1558048926470,0.02800000086426735,3.9839999675750732,9.059000015258789
1558048926536,-0.23899999260902405,3.8970000743865967,8.628999710083008
1558048926734,0.44999998807907104,3.878000020980835,9.625
1558048926800,-0.05700000002980232,4.453000068664551,8.541999816894531
1558048927064,0.5170000195503235,4.7779998779296875,8.762999534606934
1558048927262,-0.0860000029206276,4.461999893188477,8.666999816894531
1558048927331,-0.008999999612569809,4.625,9.194000244140625
1558048927526,0.3160000145435333,5.4679999351501465,9.088000297546387
1558048927592,0.10499999672174454,6.091000080108643,6.953000068664551
1558048927659,0.4399999976158142,5.486999988555908,7.631999969482422
1558048927790,1.1770000457763672,8.331999778747559,3.4189999103546143
1558048928054,0.7269999980926514,7.239999771118164,4.672999858856201
1558048928126,1.2350000143051147,7.355000019073486,8.513999938964844
1558048928186,0.5929999947547913,7.382999897003174,4.261000156402588
1558048928318,0.28700000047683716,6.828000068664551,7.296999931335449
1558048928450,1.3209999799728394,8.111000061035156,4.635000228881836
1558048928582,1.781000018119812,8.10200023651123,1.0820000171661377
1558048928648,2.5179998874664307,8.552000045776367,-2.115999937057495
1558048929244,2.0869998931884766,9.442999839782715,0.14300000667572021
1558048929308,1.7999999523162842,9.395000457763672,-0.28700000047683716
1558048929374,1.9049999713897705,9.42300033569336,-0.3919999897480011
1558048929440,1.7899999618530273,9.37600040435791,-0.3160000145435333
1558048929506,1.7430000305175781,9.26099967956543,0.01899999938905239
1558048929573,1.8669999837875366,9.213000297546387,-0.20999999344348907
1558048929638,2.0299999713897705,9.298999786376953,-0.0860000029206276
1558048929704,1.9049999713897705,9.395000457763672,0.2290000021457672
1558048929902,2.624000072479248,10.045999526977539,-0.9760000109672546
1558048929968,2.1740000247955322,9.845000267028809,0.1340000033378601
1558048930232,2.3359999656677246,8.972999572753906,-0.5839999914169312
1558048930298,2.3550000190734863,9.307999610900879,-0.765999972820282
1558048930364,2.499000072479248,9.911999702453613,-0.8999999761581421
1558048930430,2.259999990463257,12.4399995803833,1.656000018119812
1558048930496,0.5450000166893005,9.307999610900879,4.932000160217285
1558048930562,3.178999900817871,8.52299976348877,0.7559999823570251
1558048930698,1.034000039100647,7.928999900817871,1.5509999990463257
1558048930760,1.1100000143051147,8.64799976348877,0.9860000014305115
1558048930829,0.6890000104904175,8.878000259399414,0.7080000042915344
1558048931024,1.684999942779541,10.505999565124512,-0.8809999823570251
1558048931157,-1.7710000276565552,10.77400016784668,5.429999828338623
1558048931222,4.558000087738037,7.853000164031982,0.4020000100135803
1558048931552,2.671999931335449,8.925000190734863,-1.2730000019073486
1558048931816,4.816999912261963,7.269000053405762,-0.7080000042915344
1558048931882,0.5740000009536743,9.682000160217285,2.499000072479248
1558048932014,1.1009999513626099,8.083000183105469,0.8230000138282776
1558048932081,0.7179999947547913,8.734000205993652,0.11400000005960464
1558048932146,0.8519999980926514,8.666999816894531,-0.6990000009536743
1558048932212,1.6660000085830688,10.123000144958496,-0.02800000086426735
1558048932344,2.700000047683716,12.41100025177002,3.371000051498413
1558048932410,-0.1720000058412552,8.043999671936035,3.5329999923706055
1558048932476,4.434000015258789,9.336999893188477,-0.3440000116825104
1558048932608,0.8519999980926514,7.690000057220459,1.1579999923706055
1558048932806,2.384000062942505,8.897000312805176,-1.062999963760376
1558048932872,2.4700000286102295,10.371999740600586,-0.1720000058412552
1558048932938,3.197999954223633,12.956999778747559,-1.8769999742507935
1558048933004,-0.2770000100135803,11.09000015258789,6.252999782562256
1558048933334,0.9760000109672546,8.753000259399414,0.0949999988079071
1558048933466,1.5509999990463257,9.25100040435791,-0.23899999260902405
1558048933730,5.0279998779296875,6.693999767303467,0.9480000138282776
1558048933862,1.8669999837875366,8.704999923706055,0.7559999823570251
1558048934126,2.930000066757202,9.940999984741211,-0.8899999856948853
1558048934192,3.687000036239624,12.038000106811523,-1.2920000553131104
1558048934655,1.1770000457763672,8.59000015258789,-1.090999960899353
1558048934720,0.8330000042915344,8.494000434875488,-0.32499998807907104
1558048934786,1.5609999895095825,9.26099967956543,-0.41100001335144043
1558048934918,3.5429999828338623,11.472999572753906,-1.6369999647140503
1558048935051,2.365000009536743,5.775000095367432,0.621999979019165
1558048935182,3.055000066757202,11.836999893188477,1.781000018119812
1558048935248,2.815000057220459,8.868000030517578,0.3630000054836273
1558048935314,2.86299991607666,7.699999809265137,0.14300000667572021
1558048935380,3.0929999351501465,8.991999626159668,-0.41100001335144043
1558048935446,3.055000066757202,10.343000411987305,1.340000033378601
1558048935512,3.677000045776367,8.972999572753906,0.3630000054836273
1558048935646,2.7290000915527344,8.8100004196167,0.5550000071525574
1558048935776,2.3269999027252197,9.079000473022461,0.28700000047683716
1558048935910,2.183000087738037,8.9350004196167,-0.7850000262260437
1558048935977,2.9590001106262207,9.79699993133545,0.2290000021457672
1558048936040,2.078000068664551,9.854000091552734,0.5740000009536743
1558048936238,2.384000062942505,9.720000267028809,0.0860000029206276
1558048936304,2.8340001106262207,8.675999641418457,-0.16200000047683716
1558048936370,2.2690000534057617,9.42300033569336,-0.41100001335144043
1558048936502,2.3550000190734863,9.097999572753906,-0.2290000021457672
1558048936570,2.4030001163482666,9.25100040435791,-0.2290000021457672
1558048936634,2.4030001163482666,9.317999839782715,-0.1720000058412552
1558048936766,2.3359999656677246,9.279999732971191,-0.23899999260902405
1558048936832,2.3550000190734863,9.26099967956543,-0.0949999988079071
1558048936898,2.3550000190734863,9.307999610900879,-0.06700000166893005
1558048937030,2.365000009536743,9.232000350952148,-0.1720000058412552
1558048937096,2.375,9.232000350952148,-0.06700000166893005
1558048937167,2.3459999561309814,9.25100040435791,-0.12399999797344208
1558048937228,2.4030001163482666,9.279999732971191,-0.12399999797344208
1558048937360,2.3940000534057617,9.184000015258789,0.0
1558048937496,2.365000009536743,9.279999732971191,-0.02800000086426735
1558048937561,2.3940000534057617,9.307999610900879,0.02800000086426735
1558048937756,2.4230000972747803,9.164999961853027,0.20999999344348907
1558048937830,2.5950000286102295,9.145999908447266,0.11400000005960464
1558048937889,2.8340001106262207,8.9350004196167,0.4880000054836273
1558048938020,3.371000051498413,8.83899974822998,0.257999986410141
1558048938086,3.447000026702881,9.644000053405762,-0.7080000042915344
1558048938416,3.5139999389648438,8.819999694824219,-0.8040000200271606
1558048938483,3.7249999046325684,9.519000053405762,-0.6029999852180481
1558048938614,3.821000099182129,12.986000061035156,3.7920000553131104
1558048938680,1.8380000591278076,8.187999725341797,3.4089999198913574
1558048938746,3.6480000019073486,7.34499979019165,0.8709999918937683
1558048938812,3.246000051498413,10.371999740600586,2.078000068664551
1558048938881,2.546999931335449,8.168999671936035,1.2920000553131104
1558048938944,1.934000015258789,7.948999881744385,1.1200000047683716
1558048939010,1.406999945640564,8.819999694824219,0.11400000005960464
1558048939142,1.2640000581741333,8.159000396728516,0.2290000021457672
1558048939208,2.0490000247955322,10.668000221252441,-0.20999999344348907
1558048939274,3.0160000324249268,11.454000473022461,-1.350000023841858
1558048939408,1.7430000305175781,7.326000213623047,3.188999891281128
1558048939472,6.38700008392334,7.585000038146973,-1.1490000486373901
1558048939604,1.4359999895095825,8.22599983215332,0.9760000109672546
1558048939670,3.380000114440918,7.776000022888184,0.4300000071525574
1558048939738,3.2269999980926514,7.872000217437744,-0.6320000290870667
1558048939934,4.539000034332275,12.833000183105469,-1.9149999618530273
1558048940198,2.240999937057495,8.609000205993652,1.5889999866485596
1558048940264,2.068000078201294,8.130000114440918,0.29600000381469727
1558048940330,1.781000018119812,8.675999641418457,0.02800000086426735
1558048940465,2.2980000972747803,8.331999778747559,-0.9670000076293945
1558048940528,2.4130001068115234,11.347999572753906,-0.4880000054836273
1558048940727,6.664999961853027,6.368000030517578,-1.684999942779541
1558048940792,1.8960000276565552,10.227999687194824,1.5219999551773071
1558048940924,3.2079999446868896,7.593999862670898,-0.37299999594688416
1558048941061,2.930000066757202,7.767000198364258,-1.406999945640564
1558048941122,3.0160000324249268,9.835000038146973,-0.4300000071525574
1558048941190,4.558000087738037,11.70300006866455,-2.872999906539917
1558048941254,2.680999994277954,14.61400032043457,5.1620001792907715
1558048941329,2.365000009536743,6.204999923706055,1.781000018119812
1558048941389,5.0279998779296875,8.560999870300293,-0.9190000295639038
1558048941452,2.7290000915527344,9.336999893188477,1.7519999742507935
1558048941520,2.700000047683716,7.355000019073486,0.04699999839067459
1558048941584,2.125999927520752,8.418000221252441,-0.24899999797344208
1558048941658,1.2059999704360962,8.637999534606934,-0.8999999761581421
1558048941782,2.2119998931884766,9.480999946594238,-0.8330000042915344
1558048941848,2.7860000133514404,11.175999641418457,-1.9630000591278076
1558048941914,5.190000057220459,11.760000228881836,3.6679999828338623
1558048942053,5.583000183105469,8.475000381469727,-2.700000047683716
1558048942178,2.4230000972747803,6.617000102996826,-0.4020000100135803
1558048942316,3.505000114440918,8.10200023651123,0.06700000166893005
1558048942379,4.309000015258789,10.16100025177002,-0.24899999797344208
1558048942508,3.8399999141693115,14.364999771118164,5.545000076293945
1558048942574,3.5329999923706055,5.97599983215332,3.505000114440918
1558048942640,5.267000198364258,8.503999710083008,0.0
1558048942706,2.2019999027252197,7.901000022888184,2.7669999599456787
1558048942838,2.441999912261963,8.59000015258789,0.9279999732971191
1558048942904,1.7710000276565552,8.484999656677246,0.5740000009536743
1558048942975,2.3940000534057617,8.284000396728516,-0.14300000667572021
1558048943102,3.5810000896453857,11.491999626159668,-0.8519999980926514
1558048943168,3.677000045776367,12.0,3.4089999198913574
1558048943300,6.664999961853027,7.326000213623047,1.3209999799728394
1558048943438,2.375,8.015999794006348,1.465000033378601
1558048943503,4.5289998054504395,7.593999862670898,0.6890000104904175
1558048943570,4.309000015258789,8.015999794006348,-0.23899999260902405
1558048943624,3.7149999141693115,8.284000396728516,-0.5360000133514404
1558048943653,3.6480000019073486,8.388999938964844,-0.765999972820282
1558048943684,4.078999996185303,8.897000312805176,-0.23899999260902405
1558048943704,3.9639999866485596,9.050000190734863,-0.1720000058412552
1558048943735,3.8399999141693115,9.355999946594238,-0.06700000166893005
1558048943744,3.74399995803833,9.54800033569336,0.32499998807907104
1558048943764,4.126999855041504,9.826000213623047,-0.7080000042915344
1558048943799,4.251999855041504,11.147000312805176,-1.2450000047683716
1558048943804,3.7060000896453857,12.067000389099121,-0.20999999344348907
1558048943824,3.5329999923706055,12.755999565124512,1.9819999933242798
1558048943844,4.126999855041504,13.215999603271484,2.7960000038146973
1558048943865,3.5910000801086426,11.836999893188477,2.308000087738037
1558048943886,3.5910000801086426,10.180000305175781,2.2690000534057617
1558048943906,3.380000114440918,7.699999809265137,1.7710000276565552
1558048943946,2.509000062942505,5.888999938964844,1.9149999618530273
1558048943964,2.2690000534057617,5.267000198364258,1.6369999647140503
1558048943984,2.5280001163482666,4.96999979019165,1.1490000486373901
1558048944005,3.246000051498413,6.348999977111816,0.6320000290870667
1558048944024,3.7920000553131104,8.111000061035156,0.3160000145435333
1558048944044,3.9070000648498535,9.336999893188477,1.0429999828338623
1558048944064,3.5239999294281006,10.170000076293945,1.2350000143051147
1558048944090,3.063999891281128,11.09000015258789,1.7999999523162842
1558048944104,4.232999801635742,11.866000175476074,1.7710000276565552
1558048944124,3.619999885559082,9.979000091552734,1.5130000114440918
1558048944172,2.872999906539917,7.901000022888184,0.9670000076293945
1558048944184,2.8340001106262207,7.642000198364258,0.5929999947547913
1558048944204,2.805999994277954,7.8429999351501465,0.257999986410141
1558048944228,2.6519999504089355,8.187999725341797,0.4020000100135803
1558048944246,2.4800000190734863,8.619000434875488,0.5070000290870667
1558048944264,2.441999912261963,8.878000259399414,0.4300000071525574
1558048944284,2.556999921798706,9.164999961853027,0.28700000047683716
1558048944311,2.872999906539917,9.432999610900879,0.1720000058412552
1558048944324,3.4189999103546143,9.892999649047852,0.20999999344348907
1558048944370,2.115999937057495,9.510000228881836,2.9489998817443848
1558048944384,2.8440001010894775,9.184000015258789,0.11400000005960464
1558048944424,3.8589999675750732,8.340999603271484,-0.9480000138282776
1558048944444,3.4189999103546143,8.954000473022461,-0.5740000009536743
1558048944464,3.0160000324249268,10.142000198364258,0.0860000029206276
1558048944504,1.8860000371932983,10.03600025177002,1.1770000457763672
1558048944524,2.2790000438690186,8.991999626159668,0.7369999885559082
1558048944585,3.055000066757202,8.159000396728516,-0.0949999988079071
1558048944604,2.940000057220459,8.331999778747559,-0.1720000058412552
1558048944624,3.1500000953674316,8.600000381469727,-0.16200000047683716
1558048944644,2.6619999408721924,9.020999908447266,-0.0860000029206276
1558048944664,2.815000057220459,9.020999908447266,0.0
1558048944684,2.632999897003174,9.336999893188477,-0.12399999797344208
1558048944705,2.546999931335449,9.480999946594238,0.1720000058412552
1558048944724,2.6619999408721924,9.222000122070312,0.04699999839067459
1558048944744,2.7960000038146973,8.9350004196167,0.01899999938905239
1558048944764,2.8440001010894775,8.954000473022461,-0.02800000086426735
1558048944784,2.8340001106262207,8.982999801635742,-0.1340000033378601
1558048944824,2.7960000038146973,9.232000350952148,-0.16200000047683716
1558048944844,2.9210000038146973,9.279999732971191,-0.1340000033378601
1558048944864,2.815000057220459,9.20300006866455,0.02800000086426735
1558048944914,3.1019999980926514,9.020999908447266,-0.32499998807907104
1558048944924,3.1019999980926514,9.020999908447266,-0.23899999260902405
1558048944951,3.13100004196167,9.050000190734863,-0.41100001335144043
1558048944972,3.1410000324249268,8.991999626159668,-0.4020000100135803
1558048944984,3.2839999198913574,9.050000190734863,-0.41100001335144043
1558048945037,3.2750000953674316,9.079000473022461,-0.4020000100135803
1558048945044,3.2269999980926514,9.050000190734863,-0.4020000100135803
1558048945064,3.2750000953674316,8.96399974822998,-0.3630000054836273
1558048945084,3.1700000762939453,9.13599967956543,-0.3160000145435333
1558048945108,3.0739998817443848,9.145999908447266,-0.257999986410141
1558048945124,3.1019999980926514,9.184000015258789,-0.20100000500679016
1558048945144,3.121999979019165,9.088000297546387,-0.16200000047683716
1558048945175,3.1019999980926514,9.184000015258789,-0.20999999344348907
1558048945184,3.2079999446868896,9.050000190734863,-0.3919999897480011
1558048945204,3.2839999198913574,8.906000137329102,-0.3630000054836273
1558048945224,3.2750000953674316,8.954000473022461,-0.32499998807907104
1558048945244,3.303999900817871,8.9350004196167,-0.2770000100135803
1558048945265,3.303999900817871,9.050000190734863,-0.2770000100135803
1558048945284,3.312999963760376,9.145999908447266,-0.4300000071525574
1558048945346,3.0450000762939453,9.126999855041504,-0.1720000058412552
1558048945367,3.1500000953674316,9.050000190734863,-0.24899999797344208
1558048945387,3.2079999446868896,9.020999908447266,-0.257999986410141
1558048945408,3.1700000762939453,9.059000015258789,-0.4020000100135803
1558048945428,3.1019999980926514,9.020999908447266,-0.257999986410141
1558048945449,3.13100004196167,9.107000350952148,-0.20999999344348907
1558048945471,3.1700000762939453,9.126999855041504,-0.29600000381469727
1558048945494,3.13100004196167,9.097999572753906,-0.3160000145435333
1558048945504,3.0450000762939453,9.069000244140625,-0.1720000058412552
1558048945538,3.0929999351501465,9.050000190734863,-0.20999999344348907
1558048945558,3.1019999980926514,9.069000244140625,-0.14300000667572021
1558048945564,3.1019999980926514,9.107000350952148,-0.23899999260902405
1558048945584,3.0739998817443848,9.097999572753906,-0.16200000047683716
1558048945604,3.1410000324249268,9.050000190734863,-0.14300000667572021
1558048945625,3.13100004196167,9.001999855041504,-0.24899999797344208
1558048945647,3.121999979019165,9.097999572753906,-0.2770000100135803
1558048945669,3.13100004196167,9.126999855041504,-0.1720000058412552
1558048945713,3.2750000953674316,9.050000190734863,-0.1340000033378601
1558048945724,3.2079999446868896,9.020999908447266,-0.3160000145435333
1558048945775,3.13100004196167,9.039999961853027,-0.24899999797344208
1558048945784,3.265000104904175,8.991999626159668,-0.1720000058412552
1558048945804,3.236999988555908,9.088000297546387,-0.1809999942779541
1558048945844,3.197999954223633,9.050000190734863,-0.20999999344348907
1558048945864,3.188999891281128,8.991999626159668,-0.3160000145435333
1558048945884,3.1700000762939453,9.020999908447266,-0.29600000381469727
1558048945944,3.197999954223633,9.050000190734863,-0.3440000116825104
1558048945964,3.178999900817871,9.020999908447266,-0.32499998807907104
1558048945984,3.13100004196167,9.050000190734863,-0.28700000047683716
1558048946004,3.1700000762939453,9.039999961853027,-0.23899999260902405
1558048946024,3.1500000953674316,9.079000473022461,-0.37299999594688416
1558048946044,3.1019999980926514,9.050000190734863,-0.3440000116825104
1558048946064,3.13100004196167,9.079000473022461,-0.29600000381469727
1558048946084,3.0829999446868896,9.107000350952148,-0.3540000021457672
1558048946105,3.1019999980926514,9.107000350952148,-0.29600000381469727
1558048946126,3.1700000762939453,9.088000297546387,-0.2290000021457672
1558048946147,3.121999979019165,9.050000190734863,-0.3630000054836273
1558048946168,3.1019999980926514,9.069000244140625,-0.32499998807907104
1558048946190,3.1410000324249268,9.069000244140625,-0.3160000145435333
1558048946212,3.1500000953674316,9.050000190734863,-0.32499998807907104
1558048946232,3.063999891281128,9.059000015258789,-0.3919999897480011
1558048946244,3.0929999351501465,9.059000015258789,-0.3540000021457672
1558048946272,3.121999979019165,9.050000190734863,-0.3540000021457672
1558048946293,3.13100004196167,9.050000190734863,-0.3440000116825104
1558048946304,3.0829999446868896,9.069000244140625,-0.41100001335144043
1558048946324,3.1019999980926514,9.059000015258789,-0.3540000021457672
1558048946355,3.1019999980926514,9.050000190734863,-0.3540000021457672
1558048946364,3.0929999351501465,9.069000244140625,-0.3160000145435333
1558048946384,3.0929999351501465,9.079000473022461,-0.24899999797344208
1558048946417,3.0929999351501465,9.107000350952148,-0.3630000054836273
1558048946424,3.1500000953674316,9.097999572753906,-0.4399999976158142
1558048946444,3.0739998817443848,9.079000473022461,-0.3919999897480011
1558048946464,3.0829999446868896,9.088000297546387,-0.3440000116825104
1558048946484,3.0829999446868896,9.039999961853027,-0.4399999976158142
1558048946530,3.055000066757202,9.050000190734863,-0.4399999976158142
1558048946552,3.13100004196167,9.050000190734863,-0.3630000054836273
1558048946575,3.13100004196167,9.020999908447266,-0.3440000116825104
1558048946584,3.13100004196167,9.050000190734863,-0.3919999897480011
1558048946604,3.13100004196167,9.050000190734863,-0.3440000116825104
1558048946643,3.1019999980926514,9.039999961853027,-0.3919999897480011
1558048946644,3.121999979019165,9.059000015258789,-0.41100001335144043
1558048946667,3.0739998817443848,9.050000190734863,-0.3919999897480011
1558048946714,3.055000066757202,9.088000297546387,-0.3630000054836273
1558048946736,3.063999891281128,9.01200008392334,-0.3540000021457672
1558048946744,3.0739998817443848,9.059000015258789,-0.23899999260902405
1558048946783,3.0739998817443848,9.050000190734863,-0.41100001335144043
1558048946785,3.055000066757202,9.020999908447266,-0.4020000100135803
1558048946805,3.055000066757202,9.069000244140625,-0.3919999897480011
1558048946828,2.98799991607666,9.079000473022461,-0.29600000381469727
1558048946851,2.98799991607666,9.050000190734863,-0.4399999976158142
1558048946873,2.98799991607666,9.050000190734863,-0.41100001335144043
1558048946884,2.9590001106262207,9.107000350952148,-0.37299999594688416
1558048946938,2.9010000228881836,9.050000190734863,-0.24899999797344208
1558048946944,2.8440001010894775,9.097999572753906,-0.32499998807907104
1558048947010,2.815000057220459,9.088000297546387,-0.37299999594688416
1558048947076,2.757999897003174,9.13599967956543,-0.4399999976158142
1558048947159,2.700000047683716,9.088000297546387,-0.4690000116825104
1558048947208,2.614000082015991,9.107000350952148,-0.06700000166893005
1558048947274,2.5950000286102295,9.107000350952148,-0.3919999897480011
1558048947340,2.5850000381469727,9.270000457763672,0.0
1558048947406,2.690999984741211,9.107000350952148,-0.02800000086426735
1558048947474,3.1700000762939453,8.532999992370605,0.20999999344348907
1558048947607,3.7060000896453857,10.256999969482422,1.0049999952316284
1558048947673,3.628999948501587,9.470999717712402,-0.3160000145435333
1558048947738,3.4189999103546143,8.388999938964844,0.7369999885559082
1558048947807,3.7920000553131104,7.901000022888184,0.5740000009536743
1558048947942,3.821000099182129,8.541999816894531,-0.1720000058412552
1558048948000,3.6480000019073486,7.374000072479248,0.32499998807907104
1558048948078,3.9639999866485596,10.324000358581543,0.45899999141693115
1558048948145,5.553999900817871,12.670000076293945,0.9190000295639038
1558048948198,3.6480000019073486,11.529999732971191,4.089000225067139
1558048948330,1.9249999523162842,8.062999725341797,3.13100004196167
1558048948416,1.809999942779541,9.682000160217285,4.375999927520752
1558048948462,1.7519999742507935,8.072999954223633,2.996999979019165
1558048948528,-1.312000036239624,9.270000457763672,2.4030001163482666
1558048948594,1.1100000143051147,8.331999778747559,1.5130000114440918
1558048948660,1.3980000019073486,8.10200023651123,1.1579999923706055
1558048948746,1.1770000457763672,8.791000366210938,0.6700000166893005
1558048948863,3.7249999046325684,11.866000175476074,-0.04699999839067459
1558048948936,0.3540000021457672,14.565999984741211,6.7129998207092285
1558048948990,2.86299991607666,5.074999809265137,2.7290000915527344
1558048949058,2.2690000534057617,8.27400016784668,1.2450000047683716
1558048949129,0.746999979019165,9.854000091552734,3.447000026702881
1558048949200,2.614000082015991,7.249000072479248,1.406999945640564
1558048949254,2.7860000133514404,7.8429999351501465,0.7850000262260437
1558048949320,2.5850000381469727,7.718999862670898,-0.02800000086426735
1558048949390,2.556999921798706,8.255000114440918,-0.41100001335144043
1558048949518,3.2839999198913574,14.508999824523926,0.5260000228881836
1558048949584,0.7179999947547913,11.012999534606934,6.7129998207092285
1558048949656,3.753999948501587,3.619999885559082,-0.41100001335144043
1558048949730,1.972000002861023,10.123000144958496,2.7960000038146973
1558048949798,1.9529999494552612,7.9679999351501465,1.5219999551773071
1558048949848,1.2059999704360962,7.853000164031982,1.2350000143051147
1558048950060,1.8289999961853027,9.67199993133545,0.5740000009536743
1558048950112,2.9489998817443848,12.699000358581543,-0.9959999918937683
1558048950181,0.8999999761581421,13.234999656677246,2.9779999256134033
1558048950254,0.3919999897480011,7.355000019073486,3.8970000743865967
1558048950324,4.510000228881836,8.418000221252441,-0.04699999839067459
1558048950395,0.257999986410141,10.1899995803833,2.183000087738037
1558048950445,1.944000005722046,6.291999816894531,0.6029999852180481
1558048950522,3.371000051498413,8.072999954223633,-0.0860000029206276
1558048950574,3.2170000076293945,8.753000259399414,-0.12399999797344208
1558048950644,2.1740000247955322,7.690000057220459,-0.3440000116825104
1558048950720,2.3940000534057617,10.467000007629395,0.3440000116825104
1558048950772,3.74399995803833,14.355999946594238,-1.8480000495910645
1558048950844,0.8899999856948853,11.463000297546387,5.861000061035156
1558048950904,3.609999895095825,4.702000141143799,-0.20100000500679016
1558048950972,2.125999927520752,10.803000450134277,2.125999927520752
1558048951050,2.0490000247955322,7.46999979019165,1.6180000305175781
1558048951102,1.2059999704360962,8.130000114440918,1.1970000267028809
1558048951175,0.9570000171661377,8.71500015258789,0.06700000166893005
1558048951234,1.034000039100647,8.39900016784668,-0.16200000047683716
1558048951305,1.6950000524520874,9.079000473022461,0.41100001335144043
1558048951381,2.680999994277954,12.104999542236328,-0.4880000054836273
1558048951432,2.2980000972747803,14.048999786376953,3.878000020980835
1558048951508,0.3160000145435333,8.206999778747559,4.021999835968018
1558048951564,4.4720001220703125,6.636000156402588,0.1340000033378601
1558048951712,2.556999921798706,7.507999897003174,0.5170000195503235
1558048951763,3.0450000762939453,7.756999969482422,0.45899999141693115
1558048951828,2.4030001163482666,7.5269999504089355,0.1809999942779541
1558048951895,2.3269999027252197,7.747000217437744,-0.37299999594688416
1558048951973,2.739000082015991,10.744999885559082,0.2290000021457672
1558048952026,3.8399999141693115,12.822999954223633,-1.8960000276565552
1558048952050,2.499000072479248,14.07800006866455,0.6320000290870667
1558048952066,1.8380000591278076,14.91100025177002,3.8499999046325684
1558048952104,1.378999948501587,13.22599983215332,4.980000019073486
1558048952106,0.5740000009536743,10.803000450134277,6.177000045776367
1558048952158,1.406999945640564,5.688000202178955,3.7149999141693115
1558048952183,2.9590001106262207,3.9070000648498535,0.6890000104904175
1558048952186,4.691999912261963,5.572999954223633,-0.5839999914169312
1558048952210,4.070000171661377,8.762999534606934,-0.5550000071525574
1558048952236,3.246000051498413,10.083999633789062,0.7080000042915344
1558048952262,2.441999912261963,10.744999885559082,2.010999917984009
1558048952266,1.819000005722046,9.807000160217285,2.9210000038146973
1558048952288,2.068000078201294,8.848999977111816,2.2690000534057617
1558048952315,2.365000009536743,7.823999881744385,1.4739999771118164
1558048952342,2.010999917984009,7.374000072479248,1.1299999952316284
1558048952346,1.8380000591278076,7.440999984741211,0.7179999947547913
1558048952370,1.6080000400543213,8.015999794006348,0.6890000104904175
1558048952398,1.5800000429153442,8.187999725341797,0.7179999947547913
1558048952406,1.6180000305175781,8.380000114440918,0.621999979019165
1558048952427,1.1390000581741333,8.656999588012695,0.5170000195503235
1558048952452,0.9760000109672546,8.734000205993652,0.02800000086426735
1558048952486,0.8420000076293945,8.571000099182129,-0.1809999942779541
1558048952532,1.090999960899353,8.675999641418457,0.24899999797344208
1558048952566,1.6660000085830688,8.59000015258789,-0.3440000116825104
1558048952590,2.000999927520752,8.83899974822998,-0.04699999839067459
1558048952640,2.115999937057495,10.505999565124512,0.257999986410141
1558048952646,2.0869998931884766,11.684000015258789,-0.5170000195503235
1558048952668,2.4130001068115234,11.894000053405762,-1.1970000267028809
1558048952696,3.0929999351501465,11.942000389099121,-1.7330000400543213
1558048952706,4.586999893188477,12.746999740600586,-2.240999937057495
1558048952749,3.7249999046325684,12.928999900817871,2.6519999504089355
1558048952776,0.2290000021457672,12.17199993133545,5.372000217437744
1558048952786,-1.1490000486373901,9.767999649047852,5.947000026702881
1558048952806,0.3059999942779541,8.03499984741211,3.9070000648498535
1558048952858,6.166999816894531,5.775000095367432,0.6890000104904175
1558048952866,6.196000099182129,7.182000160217285,-0.1340000033378601
1558048952886,3.562000036239624,9.01200008392334,0.5740000009536743
1558048952910,2.193000078201294,10.314000129699707,1.1200000047683716
1558048952936,1.2829999923706055,10.399999618530273,1.5219999551773071
1558048952963,0.5450000166893005,9.729999542236328,1.5219999551773071
1558048952966,0.6119999885559082,8.878000259399414,1.5130000114440918
1558048952990,0.8809999823570251,8.168999671936035,1.0429999828338623
1558048953017,1.2450000047683716,7.901000022888184,0.8140000104904175
1558048953044,1.7039999961853027,7.679999828338623,0.7749999761581421
1558048953046,2.5850000381469727,7.814000129699707,0.7850000262260437
1558048953071,2.98799991607666,7.986999988555908,0.5170000195503235
1558048953126,3.197999954223633,8.27400016784668,-0.0860000029206276
1558048953154,3.2269999980926514,8.532999992370605,-0.4399999976158142
1558048953180,2.930000066757202,8.494000434875488,-0.5839999914169312
1558048953207,2.5850000381469727,8.293000221252441,-0.7850000262260437
1558048953233,2.7100000381469727,8.359999656677246,-1.034000039100647
1558048953259,2.815000057220459,8.388999938964844,-0.8809999823570251
1558048953266,2.7860000133514404,8.8100004196167,-0.8040000200271606
1558048953287,2.5759999752044678,9.25100040435791,-0.3919999897480011
1558048953312,2.4030001163482666,9.480999946594238,0.16200000047683716
1558048953340,3.0450000762939453,9.940999984741211,0.24899999797344208
1558048953346,3.312999963760376,10.630000114440918,-1.503000020980835
1558048953367,3.13100004196167,11.406000137329102,-2.375
1558048953396,2.872999906539917,12.803999900817871,-0.9959999918937683
1558048953424,2.757999897003174,15.006999969482422,2.375
1558048953426,1.8669999837875366,16.1560001373291,4.2129998207092285
1558048953486,0.8230000138282776,6.493000030517578,3.063999891281128
1558048953507,2.4130001068115234,4.6539998054504395,-0.4399999976158142
1558048953536,3.246000051498413,3.8589999675750732,-0.37299999594688416
1558048953565,3.9639999866485596,7.163000106811523,0.28700000047683716
1558048953566,3.197999954223633,8.800999641418457,1.0529999732971191
1558048953594,2.431999921798706,9.604999542236328,1.9529999494552612
1558048953622,1.6369999647140503,10.170000076293945,1.6950000524520874
1558048953626,1.9149999618530273,11.098999977111816,1.781000018119812
1558048953650,1.781000018119812,10.208999633789062,1.1009999513626099
1558048953666,2.010999917984009,9.079000473022461,0.5170000195503235
1558048953707,1.6080000400543213,8.64799976348877,0.621999979019165
1558048953765,0.9570000171661377,9.097999572753906,0.9760000109672546
1558048953767,1.062999963760376,9.184000015258789,0.8610000014305115
1558048953794,1.406999945640564,9.25100040435791,0.28700000047683716
1558048953806,1.531999945640564,9.336999893188477,0.06700000166893005
1558048953826,1.531999945640564,9.395000457763672,0.2770000100135803
1558048953854,1.5219999551773071,9.298999786376953,0.2770000100135803
1558048953884,1.7619999647140503,9.307999610900879,0.0949999988079071
1558048953913,0.6029999852180481,10.199000358581543,2.690999984741211
1558048953940,0.2290000021457672,10.314000129699707,3.390000104904175
1558048953946,0.8330000042915344,9.347000122070312,0.4690000116825104
1558048953969,2.8440001010894775,9.25100040435791,-1.2350000143051147
1558048953999,2.86299991607666,9.069000244140625,-1.1490000486373901
1558048954006,1.7999999523162842,9.682000160217285,0.1340000033378601
1558048954028,1.0149999856948853,10.208999633789062,0.5740000009536743
1558048954056,0.7369999885559082,10.380999565124512,0.9279999732971191
1558048954085,0.8420000076293945,9.940999984741211,0.6600000262260437
1558048954086,1.090999960899353,9.307999610900879,0.04699999839067459
1558048954114,1.350000023841858,8.675999641418457,-0.1340000033378601
1558048954149,1.684999942779541,8.9350004196167,0.1340000033378601
1558048954175,1.503000020980835,8.96399974822998,0.14300000667572021
1558048954207,1.7519999742507935,9.079000473022461,-0.2770000100135803
1558048954236,1.7710000276565552,9.222000122070312,-0.3160000145435333
1558048954246,1.6080000400543213,9.355999946594238,-0.3630000054836273
1558048954267,1.5800000429153442,9.336999893188477,-0.3440000116825104
1558048954295,1.8380000591278076,9.395000457763672,-0.29600000381469727
1558048954306,1.944000005722046,9.37600040435791,-0.4020000100135803
1558048954381,1.8480000495910645,9.395000457763672,-0.04699999839067459
1558048954386,1.9249999523162842,9.347000122070312,-0.4399999976158142
1558048954436,1.8380000591278076,9.298999786376953,-0.29600000381469727
1558048954446,1.8380000591278076,9.37600040435791,-0.1720000058412552
1558048954467,1.8380000591278076,9.42300033569336,-0.37299999594688416
1558048954496,1.7899999618530273,9.395000457763672,-0.4690000116825104
1558048954525,1.8569999933242798,9.470999717712402,-0.41100001335144043
1558048954526,1.8960000276565552,9.519000053405762,-0.3919999897480011
1558048954554,1.944000005722046,9.595999717712402,-0.3440000116825104
1558048954583,2.078000068664551,9.54800033569336,-0.28700000047683716
1558048954611,2.2790000438690186,9.279999732971191,-0.3160000145435333
1558048954639,2.1740000247955322,9.317999839782715,-0.32499998807907104
1558048954646,2.068000078201294,9.37600040435791,-0.4020000100135803
1558048954667,1.9149999618530273,9.347000122070312,-0.3440000116825104
1558048954695,1.9819999933242798,9.270000457763672,-0.1809999942779541
1558048954723,2.0390000343322754,9.279999732971191,-0.4020000100135803
1558048954726,2.0390000343322754,9.42300033569336,-0.41100001335144043
1558048954751,2.0969998836517334,9.489999771118164,-0.257999986410141
1558048954782,2.0299999713897705,9.470999717712402,-0.29600000381469727
1558048954786,2.125999927520752,9.57699966430664,-0.3919999897480011
1558048954810,2.0490000247955322,9.26099967956543,-0.3540000021457672
1558048954839,2.059000015258789,9.307999610900879,-0.29600000381469727
1558048954868,2.125999927520752,9.279999732971191,-0.23899999260902405
1558048954897,2.2880001068115234,9.222000122070312,-0.4020000100135803
1558048954927,2.2980000972747803,9.232000350952148,-0.5070000290870667
1558048954956,1.934000015258789,9.232000350952148,-0.2770000100135803
1558048954966,1.9819999933242798,9.13599967956543,-0.257999986410141
1558048954986,2.3269999027252197,9.480999946594238,-0.05700000002980232
1558048955016,1.944000005722046,9.385000228881836,-0.3160000145435333
1558048955026,1.944000005722046,9.347000122070312,-0.3160000145435333
1558048955046,2.1449999809265137,9.42300033569336,-0.1720000058412552
1558048955076,2.2309999465942383,9.42300033569336,-0.1340000033378601
1558048955108,2.183000087738037,9.42300033569336,-0.12399999797344208
1558048955139,2.25,9.336999893188477,-0.2770000100135803
1558048955169,2.3269999027252197,9.317999839782715,-0.3160000145435333
1558048955200,2.2690000534057617,9.307999610900879,-0.1809999942779541
1558048955230,2.240999937057495,9.26099967956543,-0.2290000021457672
1558048955266,2.2119998931884766,9.279999732971191,-0.20100000500679016
1558048955292,2.2119998931884766,9.45199966430664,-0.14300000667572021
1558048955323,2.1740000247955322,9.347000122070312,0.0
1558048955326,2.1059999465942383,9.347000122070312,-0.04699999839067459
1558048955354,2.115999937057495,9.288999557495117,-0.04699999839067459
1558048955384,2.1449999809265137,9.317999839782715,0.04699999839067459
1558048955386,2.125999927520752,9.307999610900879,0.0
1558048955415,2.193000078201294,9.288999557495117,-0.06700000166893005
1558048955477,2.2980000972747803,9.317999839782715,0.0860000029206276
1558048955539,2.3269999027252197,9.25100040435791,0.05700000002980232
1558048955604,2.2690000534057617,9.336999893188477,0.16200000047683716
1558048955688,2.3269999027252197,9.25100040435791,-0.02800000086426735
1558048955750,2.2880001068115234,9.307999610900879,0.11400000005960464
1558048955812,2.2690000534057617,9.25100040435791,0.06700000166893005
1558048955871,2.3940000534057617,9.25100040435791,0.1340000033378601
1558048955934,2.3550000190734863,9.298999786376953,0.1809999942779541
1558048956009,2.3459999561309814,9.25100040435791,0.14300000667572021
1558048956066,2.375,9.270000457763672,0.3440000116825104
1558048956132,2.2690000534057617,9.355999946594238,0.45899999141693115
1558048956203,2.4130001068115234,9.317999839782715,0.3160000145435333
1558048956278,2.3359999656677246,9.288999557495117,0.3630000054836273
1558048956404,2.509000062942505,9.145999908447266,0.5929999947547913
1558048956528,3.0160000324249268,8.331999778747559,0.8040000200271606
1558048956598,3.5810000896453857,8.312000274658203,-0.29600000381469727
1558048956660,3.572000026702881,10.878999710083008,0.1720000058412552
1558048956748,2.9779999256134033,9.557000160217285,0.8519999980926514
1558048956795,3.3610000610351562,8.10200023651123,0.11400000005960464
1558048956864,2.940000057220459,7.928999900817871,0.11400000005960464
1558048956924,3.063999891281128,7.747000217437744,-0.2290000021457672
1558048956990,2.98799991607666,8.96399974822998,-0.20100000500679016
1558048957128,4.193999767303467,12.53600025177002,-0.9480000138282776
1558048957254,1.9819999933242798,6.071000099182129,3.5910000801086426
1558048957320,2.365000009536743,9.050000190734863,3.1410000324249268
1558048957394,1.9249999523162842,9.767999649047852,3.878000020980835
1558048957471,1.809999942779541,7.631999969482422,2.1540000438690186
1558048957521,1.1100000143051147,8.418000221252441,2.556999921798706
1558048957595,1.1200000047683716,8.359999656677246,1.350000023841858
1558048957650,1.1390000581741333,8.187999725341797,1.1009999513626099
1558048957796,2.3940000534057617,9.940999984741211,0.4399999976158142
1558048957848,3.5329999923706055,12.29699993133545,-0.3160000145435333
1558048957980,3.006999969482422,6.061999797821045,2.556999921798706
1558048958048,2.5759999752044678,9.519000053405762,1.5130000114440918
1558048958123,1.034000039100647,8.532999992370605,2.240999937057495
1558048958178,2.499000072479248,6.78000020980835,0.9760000109672546
1558048958250,2.7769999504089355,7.995999813079834,0.8040000200271606
1558048958310,2.7860000133514404,7.593999862670898,-0.4880000054836273
1558048958382,2.25,8.656999588012695,-0.3919999897480011
1558048958459,2.556999921798706,11.26200008392334,0.1340000033378601
1558048958581,-0.12399999797344208,10.916999816894531,6.204999923706055
1558048958659,5.545000076293945,5.764999866485596,-0.9190000295639038
1558048958709,2.2119998931884766,10.208999633789062,3.111999988555908
1558048958839,1.49399995803833,8.062999725341797,0.6029999852180481
1558048958973,1.7710000276565552,8.446999549865723,-0.1809999942779541
1558048959051,2.7860000133514404,9.826000213623047,-0.7369999885559082
1558048959105,2.5280001163482666,11.932999610900879,-0.6320000290870667
1558048959168,3.6480000019073486,14.067999839782715,5.783999919891357
1558048959243,1.8289999961853027,7.0,3.437999963760376
1558048959323,4.394999980926514,8.159000396728516,0.7179999947547913
1558048959377,1.5700000524520874,8.331999778747559,2.441999912261963
1558048959432,2.556999921798706,7.039000034332275,0.7179999947547913
1558048959508,2.509000062942505,7.488999843597412,1.8669999837875366
1558048959564,3.1600000858306885,7.8429999351501465,0.0860000029206276
1558048959641,2.930000066757202,9.20300006866455,0.7179999947547913
1558048959775,4.7779998779296875,13.647000312805176,1.1579999923706055
1558048959828,0.8330000042915344,9.529000282287598,7.125
1558048959900,3.5910000801086426,6.750999927520752,1.934000015258789
1558048959977,0.8709999918937683,10.850000381469727,5.650000095367432
1558048960029,2.7290000915527344,6.980999946594238,0.8999999761581421
1558048960108,0.1809999942779541,7.642000198364258,1.503000020980835
1558048960168,1.49399995803833,7.728000164031982,0.8709999918937683
1558048960224,1.2350000143051147,7.61299991607666,0.7369999885559082
1558048960301,1.4459999799728394,8.64799976348877,0.0
1558048960356,2.499000072479248,11.272000312805176,-0.8140000104904175
1558048960434,3.7249999046325684,12.918999671936035,-2.375
1558048960518,-1.2829999923706055,9.097999572753906,6.482999801635742
1558048960545,2.9210000038146973,6.348999977111816,1.1579999923706055
1558048960548,5.927999973297119,4.883999824523926,-0.7179999947547913
1558048960573,6.942999839782715,7.34499979019165,-1.9819999933242798
1558048960601,4.8460001945495605,8.762999534606934,-0.7369999885559082
1558048960608,3.0829999446868896,10.324000358581543,1.312000036239624
1558048960629,1.350000023841858,11.732000350952148,2.680999994277954
1558048960656,0.04699999839067459,10.840999603271484,2.010999917984009
1558048960684,0.5929999947547913,9.336999893188477,0.8709999918937683
1558048960688,1.531999945640564,7.795000076293945,0.1809999942779541
1558048960711,1.9630000591278076,7.182000160217285,-0.0860000029206276
1558048960738,2.2690000534057617,6.923999786376953,-0.06700000166893005
1558048960766,2.757999897003174,6.923999786376953,-0.2770000100135803
1558048960768,2.98799991607666,7.172999858856201,-0.32499998807907104
1558048960794,2.8440001010894775,7.172999858856201,-0.257999986410141
1558048960823,2.700000047683716,7.488999843597412,-0.5550000071525574
1558048960828,2.6519999504089355,7.5269999504089355,-0.8999999761581421
1558048960852,2.757999897003174,7.479000091552734,-0.7179999947547913
1558048960880,2.5179998874664307,7.479000091552734,-0.14300000667572021
1558048960909,2.125999927520752,7.593999862670898,-0.6029999852180481
1558048960937,2.930000066757202,8.656999588012695,-1.1579999923706055
1558048960966,3.0160000324249268,9.480999946594238,-1.2450000047683716
1558048960969,3.055000066757202,10.803000450134277,-0.7080000042915344
1558048961008,3.9070000648498535,12.383000373840332,-2.2880001068115234
1558048961048,4.002999782562256,14.375,-3.303999900817871
1558048961104,1.0049999952316284,14.383999824523926,5.323999881744385
1558048961108,-0.33500000834465027,11.031999588012695,5.764999866485596
1558048961132,0.6510000228881836,7.565000057220459,4.548999786376953
1558048961160,2.565999984741211,4.48199987411499,0.2770000100135803
1558048961189,5.918000221252441,4.165999889373779,-1.5509999990463257
1558048961218,4.567999839782715,8.628999710083008,-0.41100001335144043
1558048961228,3.6480000019073486,9.73900032043457,1.1299999952316284
1558048961250,1.9529999494552612,9.652999877929688,1.9630000591278076
1558048961276,1.6180000305175781,8.829999923706055,1.062999963760376
1558048961288,2.0869998931884766,8.236000061035156,0.45899999141693115
1558048961332,2.125999927520752,7.785999774932861,0.05700000002980232
1558048961360,1.7999999523162842,8.159000396728516,0.4399999976158142
1558048961368,1.465000033378601,8.418000221252441,0.01899999938905239
1558048961388,1.312000036239624,8.581000328063965,-0.06700000166893005
1558048961414,1.340000033378601,8.848999977111816,-0.257999986410141
1558048961441,1.1490000486373901,9.059000015258789,-0.2770000100135803
1558048961468,1.2059999704360962,8.71500015258789,-0.7850000262260437
1558048961508,1.378999948501587,8.27400016784668,-0.8899999856948853
1558048961548,1.6080000400543213,7.928999900817871,-1.2059999704360962
1558048961576,1.809999942779541,8.187999725341797,-1.1770000457763672
1558048961588,1.9049999713897705,8.88700008392334,-0.9480000138282776
1558048961660,2.2880001068115234,10.888999938964844,-1.9819999933242798
1558048961716,5.056000232696533,13.378999710083008,0.8140000104904175
1558048961728,2.2309999465942383,12.727999687194824,5.304999828338623
1558048961772,-1.656000018119812,12.640999794006348,6.320000171661377
1558048961800,0.5839999914169312,8.868000030517578,3.0450000762939453
1558048961808,5.611999988555908,5.908999919891357,0.9760000109672546
1558048961829,7.1539998054504395,6.501999855041504,-0.5550000071525574
1558048961857,5.353000164031982,7.699999809265137,-1.5219999551773071
1558048961868,2.9779999256134033,9.298999786376953,0.0
1558048961915,2.000999927520752,10.265999794006348,0.746999979019165
1558048961945,1.9249999523162842,10.295000076293945,-0.3160000145435333
1558048961948,1.062999963760376,9.998000144958496,0.0
1558048961974,0.4690000116825104,9.25100040435791,0.2290000021457672
1558048962004,1.1299999952316284,8.878000259399414,0.9480000138282776
1558048962008,1.9630000591278076,8.753000259399414,0.640999972820282
1558048962064,3.13100004196167,7.939000129699707,0.0949999988079071
1558048962068,2.9110000133514404,7.699999809265137,-0.32499998807907104
1558048962094,2.8440001010894775,7.488999843597412,-0.5360000133514404
1558048962124,2.7860000133514404,7.355000019073486,-0.9480000138282776
1558048962128,2.7769999504089355,7.258999824523926,-0.8610000014305115
1558048962155,2.4130001068115234,7.46999979019165,-0.6890000104904175
1558048962168,2.2309999465942383,7.4029998779296875,-0.9480000138282776
1558048962215,2.624000072479248,7.565000057220459,-0.8230000138282776
1558048962245,2.7290000915527344,8.59000015258789,-1.0049999952316284
1558048962248,3.0450000762939453,9.807000160217285,-0.8610000014305115
1558048962275,4.051000118255615,10.888999938964844,-1.6660000085830688
1558048962304,4.710999965667725,12.04800033569336,-2.9010000228881836
1558048962308,4.145999908447266,14.576000213623047,-2.6519999504089355
1558048962364,2.805999994277954,16.51099967956543,4.01200008392334
1558048962368,-0.02800000086426735,14.73900032043457,4.788000106811523
1558048962395,-0.20999999344348907,11.175999641418457,5.190000057220459
1558048962426,0.8330000042915344,6.817999839782715,4.375999927520752
1558048962431,1.7330000400543213,5.074999809265137,2.000999927520752
1558048962457,1.9149999618530273,3.2939999103546143,0.8040000200271606
1558048962487,2.2019999027252197,4.13700008392334,-0.28700000047683716
1558048962489,3.811000108718872,6.750999927520752,-0.7179999947547913
1558048962517,3.6389999389648438,8.723999977111816,-0.2770000100135803
1558048962528,3.5810000896453857,10.418999671936035,0.7749999761581421
1558048962549,3.0160000324249268,11.21399974822998,2.98799991607666
1558048962578,1.5989999771118164,11.798999786376953,3.0350000858306885
1558048962588,1.6080000400543213,10.055999755859375,2.3550000190734863
1558048962610,1.8960000276565552,8.791000366210938,0.8519999980926514
1558048962642,2.3269999027252197,8.159000396728516,0.7369999885559082
1558048962648,1.7519999742507935,7.776000022888184,1.034000039100647
1558048962674,1.2350000143051147,8.015999794006348,0.8999999761581421
1558048962705,1.0240000486373901,8.312000274658203,0.8610000014305115
1558048962708,1.1390000581741333,8.532999992370605,0.8040000200271606
1558048962735,1.3209999799728394,8.541999816894531,0.621999979019165
1558048962748,1.4170000553131104,8.666999816894531,0.3440000116825104
1558048962768,1.3589999675750732,8.71500015258789,-0.05700000002980232
1558048962795,1.3020000457763672,8.675999641418457,-0.16200000047683716
1558048962824,1.8480000495910645,8.878000259399414,-0.1340000033378601
1558048962828,2.1540000438690186,9.194000244140625,0.3160000145435333
1558048962854,2.0490000247955322,9.395000457763672,1.0149999856948853
1558048962883,1.7430000305175781,9.979000091552734,1.656000018119812
1558048962888,1.4739999771118164,10.687999725341797,0.7850000262260437
1558048962911,1.781000018119812,11.272000312805176,0.4880000054836273
1558048962941,2.5850000381469727,11.156999588012695,-0.02800000086426735
1558048962948,4.098999977111816,10.803000450134277,-1.0429999828338623
1558048963001,4.48199987411499,10.937000274658203,0.8519999980926514
1558048963008,3.9639999866485596,11.95199966430664,2.4230000972747803
1558048963031,2.624000072479248,11.866000175476074,5.199999809265137
1558048963062,0.008999999612569809,9.968999862670898,4.75
1558048963092,0.6600000262260437,8.39900016784668,3.3610000610351562
1558048963122,3.4189999103546143,4.940999984741211,-0.05700000002980232
1558048963153,3.562000036239624,5.688000202178955,-0.4880000054836273
1558048963183,2.556999921798706,9.317999839782715,1.656000018119812
1558048963188,2.0390000343322754,11.156999588012695,2.690999984741211
1558048963213,2.2119998931884766,12.746999740600586,3.25600004196167
1558048963248,3.0160000324249268,9.37600040435791,1.9630000591278076
1558048963275,3.7149999141693115,8.675999641418457,0.6890000104904175
1558048963305,3.390000104904175,8.140000343322754,-0.20999999344348907
1558048963337,2.757999897003174,7.795000076293945,0.2770000100135803
1558048963368,2.8440001010894775,8.236000061035156,0.5929999947547913
1558048963399,3.390000104904175,8.781999588012695,0.29600000381469727
1558048963408,3.6389999389648438,9.222000122070312,0.41100001335144043
1558048963431,4.021999835968018,10.515000343322754,0.640999972820282
1558048963462,3.2079999446868896,11.003999710083008,2.5759999752044678
1558048963494,2.509000062942505,8.819999694824219,1.1679999828338623
1558048963529,3.9639999866485596,7.460000038146973,0.1340000033378601
1558048963560,3.4189999103546143,7.699999809265137,-0.32499998807907104
1558048963592,3.0450000762939453,8.083000183105469,-0.4399999976158142
1558048963625,2.6519999504089355,9.317999839782715,0.6029999852180481
1558048963628,2.441999912261963,9.614999771118164,1.034000039100647
1558048963658,2.384000062942505,9.979000091552734,1.3980000019073486
1558048963690,2.5369999408721924,9.777999877929688,1.1490000486373901
1558048963723,2.9110000133514404,8.848999977111816,0.6320000290870667
1558048963728,2.8919999599456787,8.628999710083008,0.41100001335144043
1558048963756,2.7860000133514404,8.571000099182129,0.20999999344348907
1558048963768,2.7669999599456787,8.791000366210938,0.04699999839067459
1558048963788,2.700000047683716,8.944999694824219,0.11400000005960464
1558048963821,2.5280001163482666,9.194000244140625,0.1720000058412552
1558048963828,2.614000082015991,9.37600040435791,0.4300000071525574
1558048963854,2.7290000915527344,9.42300033569336,0.3440000116825104
1558048963887,2.757999897003174,9.366000175476074,0.3440000116825104
1558048963952,2.7290000915527344,9.01200008392334,0.3440000116825104
1558048964016,2.700000047683716,9.173999786376953,0.1809999942779541
1558048964079,2.7290000915527344,9.25100040435791,0.1809999942779541
1558048964205,2.7290000915527344,9.184000015258789,-0.01899999938905239
1558048964271,2.7190001010894775,9.25100040435791,0.16200000047683716
1558048964336,2.700000047683716,9.25100040435791,-0.0860000029206276
1558048964462,2.700000047683716,9.222000122070312,0.0
1558048964528,2.6429998874664307,9.222000122070312,-0.1720000058412552
1558048964660,2.6429998874664307,9.126999855041504,-0.257999986410141
1558048964726,2.6429998874664307,9.307999610900879,-0.23899999260902405
1558048964807,2.700000047683716,9.307999610900879,-0.04699999839067459
1558048964871,2.7290000915527344,9.050000190734863,-0.28700000047683716
1558048964934,2.815000057220459,9.13599967956543,-0.29600000381469727
1558048964997,2.8529999256134033,9.184000015258789,-0.37299999594688416
1558048965063,2.7960000038146973,9.194000244140625,-0.20100000500679016
1558048965129,2.7769999504089355,9.213000297546387,-0.1340000033378601
1558048965195,2.8919999599456787,9.039999961853027,-0.4300000071525574
1558048965261,2.7960000038146973,9.079000473022461,-0.3160000145435333
1558048965327,2.815000057220459,9.184000015258789,-0.11400000005960464
1558048965526,2.9779999256134033,8.96399974822998,-0.3160000145435333
1558048965593,2.9779999256134033,8.503999710083008,-0.1809999942779541
1558048965657,3.4189999103546143,8.388999938964844,-0.2290000021457672
1558048965724,3.763000011444092,9.001999855041504,0.01899999938905239
1558048965790,3.9639999866485596,9.336999893188477,-0.6029999852180481
1558048965855,3.6010000705718994,10.256999969482422,0.257999986410141
1558048965918,3.427999973297119,8.581000328063965,0.24899999797344208
1558048965981,3.4189999103546143,8.149999618530273,-0.0860000029206276
1558048966047,3.178999900817871,8.217000007629395,-0.3630000054836273
1558048966112,3.7060000896453857,8.340999603271484,-0.5839999914169312
1558048966178,3.447000026702881,8.878000259399414,-0.6029999852180481
1558048966244,3.5429999828338623,10.142000198364258,0.24899999797344208
1558048966399,2.5850000381469727,13.27299976348877,5.697999954223633
1558048966461,2.872999906539917,5.955999851226807,2.700000047683716
1558048966525,2.4130001068115234,8.8100004196167,2.2690000534057617
1558048966591,1.9249999523162842,9.222000122070312,3.4860000610351562
1558048966656,2.134999990463257,8.140000343322754,1.8380000591278076
1558048966725,1.2920000553131104,8.446999549865723,2.000999927520752
1558048966794,1.406999945640564,8.446999549865723,1.0149999856948853
1558048966862,1.2350000143051147,8.27400016784668,0.6029999852180481
1558048966904,1.781000018119812,8.446999549865723,-0.05700000002980232
1558048966970,2.6519999504089355,10.017000198364258,-0.16200000047683716
1558048967062,3.371000051498413,11.92300033569336,-2.125999927520752
1558048967127,0.4020000100135803,11.760000228881836,7.0960001945495605
1558048967168,5.927999973297119,8.312000274658203,2.2690000534057617
1558048967234,2.930000066757202,9.031000137329102,1.6950000524520874
1558048967328,1.4550000429153442,7.776000022888184,0.16200000047683716
1558048967391,2.815000057220459,7.144000053405762,0.6320000290870667
1558048967455,3.494999885559082,7.269000053405762,-0.28700000047683716
1558048967519,2.6429998874664307,7.679999828338623,0.0
1558048967564,3.2750000953674316,9.883000373840332,-0.37299999594688416
1558048967650,4.193999767303467,12.0,-2.2980000972747803
1558048967717,0.8140000104904175,13.694999694824219,5.63100004196167
1558048967782,1.406999945640564,7.585000038146973,4.242000102996826
1558048967847,4.683000087738037,11.060999870300293,0.4779999852180481
1558048967912,1.465000033378601,7.631999969482422,0.9760000109672546
1558048967978,0.8040000200271606,7.901000022888184,0.6600000262260437
1558048968118,0.6029999852180481,8.312000274658203,0.02800000086426735
1558048968158,1.1200000047683716,8.704999923706055,-0.9190000295639038
1558048968224,1.6369999647140503,11.204999923706055,-0.2290000021457672
1558048968292,3.006999969482422,13.866999626159668,0.06700000166893005
1558048968362,-0.5929999947547913,9.729999542236328,7.058000087738037
1558048968432,4.107999801635742,8.418000221252441,-0.37299999594688416
1558048968502,0.14300000667572021,9.73900032043457,1.7039999961853027
1558048968573,0.8420000076293945,7.0960001945495605,1.2730000019073486
1558048968642,2.375,8.024999618530273,1.2920000553131104
1558048968711,2.183000087738037,7.928999900817871,0.06700000166893005
1558048968752,1.684999942779541,8.704999923706055,-0.5839999914169312
1558048968818,1.4170000553131104,10.975000381469727,0.8140000104904175
1558048968888,3.13100004196167,12.918999671936035,-2.4609999656677246
1558048968956,-1.2059999704360962,11.654999732971191,6.578999996185303
1558048969023,2.805999994277954,5.248000144958496,1.4739999771118164
1558048969091,2.259999990463257,10.956000328063965,1.1679999828338623
1558048969228,0.6700000166893005,8.072999954223633,0.8999999761581421
1558048969295,0.5170000195503235,8.723999977111816,0.3160000145435333
1558048969363,0.5740000009536743,8.704999923706055,0.1720000058412552
1558048969421,1.253999948501587,8.791000366210938,-0.4020000100135803
1558048969487,1.3309999704360962,11.607000350952148,0.04699999839067459
1558048969553,3.5139999389648438,13.522000312805176,0.8519999980926514
1558048969619,-1.6759999990463257,8.972999572753906,7.565000057220459
1558048969688,5.0279998779296875,8.9350004196167,0.4779999852180481
1558048969760,0.5260000228881836,10.017000198364258,0.2770000100135803
1558048969808,0.5360000133514404,8.072999954223633,0.7179999947547913
1558048969908,3.0350000858306885,8.043999671936035,0.02800000086426735
1558048969945,2.4130001068115234,7.556000232696533,-0.5740000009536743
1558048970018,1.503000020980835,8.178000450134277,-0.8230000138282776
1558048970093,2.259999990463257,10.975000381469727,0.01899999938905239
1558048970138,3.0739998817443848,12.498000144958496,-3.2079999446868896
1558048970209,-0.8330000042915344,12.803999900817871,5.401000022888184
1558048970276,1.4459999799728394,4.960000038146973,0.14300000667572021
1558048970350,3.055000066757202,10.956000328063965,0.7749999761581421
1558048970468,0.8709999918937683,7.823999881744385,0.6700000166893005
1558048970534,0.9860000014305115,9.270000457763672,-0.20999999344348907
1558048970745,1.5800000429153442,9.98799991607666,-0.16200000047683716
1558048970815,4.2129998207092285,12.506999969482422,-3.188999891281128
1558048970887,0.5740000009536743,12.65999984741211,4.107999801635742
1558048970957,4.078999996185303,7.776000022888184,1.2450000047683716
1558048970996,2.010999917984009,9.347000122070312,1.9819999933242798
1558048971064,1.0240000486373901,8.734000205993652,1.49399995803833
1558048971207,2.614000082015991,9.164999961853027,0.5929999947547913
1558048971281,2.9210000038146973,9.107000350952148,0.5070000290870667
1558048971394,4.021999835968018,8.217000007629395,-0.7369999885559082
1558048971471,2.259999990463257,9.069000244140625,-0.1809999942779541
1558048971590,3.2170000076293945,8.619000434875488,-0.5740000009536743
1558048971657,2.431999921798706,8.906000137329102,-0.3160000145435333
1558048971730,2.384000062942505,9.184000015258789,-0.4020000100135803
1558048971807,2.3359999656677246,9.26099967956543,-0.41100001335144043
1558048971924,2.2690000534057617,9.126999855041504,-0.41100001335144043
1558048971995,2.078000068664551,9.42300033569336,-0.4300000071525574
1558048972072,2.2119998931884766,9.42300033569336,-0.4690000116825104
1558048972146,2.3269999027252197,8.96399974822998,-0.4690000116825104
1558048972184,2.2880001068115234,9.222000122070312,-0.16200000047683716
1558048972258,2.7290000915527344,10.142000198364258,0.45899999141693115
1558048972331,1.9049999713897705,8.906000137329102,-0.5450000166893005
1558048972382,1.781000018119812,9.432999610900879,-0.5929999947547913
1558048972478,2.0390000343322754,9.54800033569336,-0.6890000104904175
1558048972515,2.2690000534057617,9.45199966430664,-0.05700000002980232
1558048972586,1.9149999618530273,9.279999732971191,-0.0949999988079071
1558048972662,1.819000005722046,9.184000015258789,-0.6990000009536743
1558048973003,2.059000015258789,9.336999893188477,-0.6990000009536743
1558048973042,2.1540000438690186,9.470999717712402,-0.5450000166893005
1558048973119,2.1059999465942383,9.355999946594238,-0.4690000116825104
1558048973197,2.0969998836517334,9.385000228881836,-0.5740000009536743
1558048973314,2.0299999713897705,9.42300033569336,-0.16200000047683716
1558048973391,2.125999927520752,9.336999893188477,-0.1340000033378601
1558048973469,2.125999927520752,9.279999732971191,-0.0949999988079071
1558048973508,2.0390000343322754,9.37600040435791,-0.1809999942779541
1558048973580,2.068000078201294,9.355999946594238,-0.0860000029206276
1558048973654,2.068000078201294,9.347000122070312,0.02800000086426735
1558048973729,2.068000078201294,9.298999786376953,-0.11400000005960464
1558048973768,2.125999927520752,9.37600040435791,-0.04699999839067459
1558048973840,2.0390000343322754,9.347000122070312,0.05700000002980232
1558048973917,2.115999937057495,9.395000457763672,-0.02800000086426735
1558048973966,2.0490000247955322,9.37600040435791,0.0
1558048974065,2.0969998836517334,9.307999610900879,0.06700000166893005
1558048974103,2.0969998836517334,9.355999946594238,0.11400000005960464
1558048974179,2.115999937057495,9.336999893188477,0.11400000005960464
1558048974254,2.068000078201294,9.288999557495117,0.14300000667572021
1558048974296,2.125999927520752,9.270000457763672,0.1340000033378601
1558048974366,2.0969998836517334,9.298999786376953,0.2290000021457672
1558048974440,2.125999927520752,9.270000457763672,0.4779999852180481
1558048974511,2.1540000438690186,9.586000442504883,0.4020000100135803
1558048974584,2.1540000438690186,9.395000457763672,0.3919999897480011
1558048974626,2.1540000438690186,9.336999893188477,0.3440000116825104
1558048974699,2.1540000438690186,9.298999786376953,0.45899999141693115
1558048974824,2.000999927520752,9.385000228881836,0.3440000116825104
1558048974894,1.5989999771118164,9.145999908447266,0.6890000104904175
1558048974969,1.1679999828338623,8.791000366210938,0.1720000058412552
1558048975046,1.4359999895095825,9.930999755859375,-0.9190000295639038
1558048975088,1.503000020980835,11.052000045776367,0.9190000295639038
1558048975157,1.7330000400543213,8.878000259399414,-0.05700000002980232
1558048975236,1.1100000143051147,8.685999870300293,-0.29600000381469727
1558048975315,1.225000023841858,8.619000434875488,-0.45899999141693115
1558048975354,1.378999948501587,8.465999603271484,-0.5929999947547913
1558048975427,0.9380000233650208,9.126999855041504,-0.4690000116825104
1558048975491,2.2980000972747803,10.592000007629395,-1.1200000047683716
1558048975550,2.8340001106262207,13.435999870300293,-1.7519999742507935
1558048975689,4.2230000495910645,6.626999855041504,2.7290000915527344
1558048975755,2.3550000190734863,9.940999984741211,1.2640000581741333
1558048975824,1.1100000143051147,9.567000389099121,2.0969998836517334
1558048975880,2.2790000438690186,7.690000057220459,0.5260000228881836
1558048975957,2.546999931335449,7.9770002365112305,1.034000039100647
1558048976023,2.308000087738037,8.359999656677246,0.2290000021457672
1558048976089,1.7619999647140503,8.380000114440918,-0.5170000195503235
1558048976144,2.7669999599456787,9.42300033569336,-0.1340000033378601
1558048976210,4.098999977111816,13.350000381469727,-1.062999963760376
1558048976297,0.382999986410141,12.383000373840332,6.4070000648498535
1558048976344,2.441999912261963,4.423999786376953,1.340000033378601
1558048976415,3.8299999237060547,10.170000076293945,1.0429999828338623
1558048976482,1.6759999990463257,8.072999954223633,1.7519999742507935
1558048976540,1.253999948501587,7.73799991607666,0.7850000262260437
1558048976621,1.378999948501587,8.187999725341797,0.5070000290870667
1558048976672,1.1009999513626099,8.380000114440918,-0.5170000195503235
1558048976738,1.6369999647140503,8.532999992370605,-0.4779999852180481
1558048976806,1.9630000591278076,11.052000045776367,0.0949999988079071
1558048976877,5.401000022888184,13.484000205993652,0.5740000009536743
1558048976944,-2.1449999809265137,8.906000137329102,6.501999855041504
1558048977011,7.0,9.088000297546387,-1.9919999837875366
1558048977068,-0.8330000042915344,10.295000076293945,2.3359999656677246
1558048977134,1.1770000457763672,7.133999824523926,0.3440000116825104
1558048977222,2.4700000286102295,7.355000019073486,-0.5550000071525574
1558048977267,2.375,7.861999988555908,-0.3160000145435333
1558048977333,2.499000072479248,8.293000221252441,-1.3209999799728394
1558048977403,3.2079999446868896,10.888999938964844,-0.7749999761581421
1558048977473,2.996999979019165,14.729000091552734,0.3440000116825104
1558048977544,-0.05700000002980232,9.644000053405762,3.0450000762939453
1558048977614,5.6020002365112305,10.055999755859375,-1.340000033378601
1558048977663,2.0390000343322754,8.925000190734863,0.1340000033378601
1558048977733,1.6759999990463257,6.5980000495910645,0.257999986410141
1558048977794,1.406999945640564,7.939000129699707,-0.3919999897480011
1558048977877,0.8999999761581421,8.560999870300293,-0.621999979019165
1558048977926,1.5219999551773071,8.503999710083008,-1.8669999837875366
1558048978000,1.7619999647140503,11.09000015258789,-0.765999972820282
1558048978126,-0.746999979019165,9.67199993133545,5.831999778747559
1558048978204,4.318999767303467,10.581999778747559,-0.45899999141693115
1558048978256,1.090999960899353,9.86400032043457,0.3160000145435333
1558048978400,2.9010000228881836,7.133999824523926,-0.20100000500679016
1558048978454,2.4509999752044678,7.4029998779296875,-0.45899999141693115
1558048978523,2.7860000133514404,8.503999710083008,-1.6180000305175781
1558048978652,3.188999891281128,15.428000450134277,1.7999999523162842
1558048978718,1.6950000524520874,6.828000068664551,1.6369999647140503
1558048978789,4.797999858856201,11.63599967956543,-0.621999979019165
1558048978916,2.0969998836517334,6.7230000495910645,0.621999979019165
1558048978988,1.4170000553131104,7.4120001792907715,0.0860000029206276
1558048979048,1.2730000019073486,8.159000396728516,-0.32499998807907104
1558048979134,1.378999948501587,9.173999786376953,-1.465000033378601
1558048979182,1.6469999551773071,10.744999885559082,-0.746999979019165
1558048979324,0.03799999877810478,12.61299991607666,6.78000020980835
1558048979378,4.7779998779296875,6.110000133514404,2.441999912261963
1558048979452,2.9210000038146973,9.039999961853027,0.8999999761581421
1558048979527,0.008999999612569809,8.418000221252441,0.9380000233650208
1558048979708,3.1500000953674316,8.178000450134277,-0.3440000116825104
1558048979783,2.700000047683716,8.734000205993652,-0.37299999594688416
1558048979860,3.390000104904175,10.937000274658203,0.24899999797344208
1558048979972,0.3919999897480011,10.237000465393066,4.586999893188477
1558048980043,1.8569999933242798,4.702000141143799,0.2770000100135803
1558048980121,2.0869998931884766,9.604999542236328,1.9819999933242798
1558048980242,1.3589999675750732,8.465999603271484,1.5800000429153442
1558048980302,1.5700000524520874,9.145999908447266,0.640999972820282
1558048980500,2.5280001163482666,9.567000389099121,0.24899999797344208
1558048980632,1.819000005722046,8.944999694824219,0.8140000104904175
1558048980783,1.7039999961853027,9.222000122070312,0.20100000500679016
1558048980836,2.125999927520752,9.173999786376953,0.11400000005960464
1558048980896,2.2309999465942383,9.26099967956543,-0.0860000029206276
1558048980970,2.2309999465942383,9.711000442504883,0.11400000005960464
1558048981048,2.375,9.173999786376953,-0.20100000500679016
1558048981102,2.499000072479248,9.184000015258789,-0.11400000005960464
1558048981160,2.308000087738037,9.42300033569336,-0.20999999344348907
1558048981227,2.3459999561309814,9.317999839782715,-0.12399999797344208
1558048981298,2.4700000286102295,9.307999610900879,-0.0949999988079071
1558048981377,2.5950000286102295,9.154999732971191,-0.1340000033378601
1558048981428,2.4700000286102295,9.279999732971191,-0.11400000005960464
1558048981558,2.546999931335449,9.194000244140625,-0.05700000002980232
1558048981622,2.546999931335449,9.222000122070312,0.04699999839067459
1558048981709,2.509000062942505,9.25100040435791,0.11400000005960464
1558048981762,2.441999912261963,9.241000175476074,0.01899999938905239
1558048981820,2.5850000381469727,9.288999557495117,0.2290000021457672
1558048981893,2.632999897003174,9.097999572753906,0.2290000021457672
1558048982103,2.7860000133514404,9.039999961853027,0.01899999938905239
1558048982158,2.9489998817443848,9.164999961853027,0.01899999938905239
1558048982216,2.8919999599456787,9.107000350952148,-0.06700000166893005
1558048982282,2.9110000133514404,9.194000244140625,0.0949999988079071
1558048982434,2.700000047683716,9.145999908447266,-0.06700000166893005
1558048982488,2.7669999599456787,9.213000297546387,0.11400000005960464
1558048982546,2.7769999504089355,9.194000244140625,-0.06700000166893005
1558048982627,2.680999994277954,9.26099967956543,0.0860000029206276
1558048982762,2.757999897003174,9.059000015258789,-0.04699999839067459
1558048982876,2.805999994277954,9.079000473022461,-0.1809999942779541
1558048982954,2.881999969482422,9.079000473022461,-0.05700000002980232
1558048983008,2.930000066757202,8.991999626159668,-0.20100000500679016
1558048983140,3.178999900817871,8.388999938964844,0.32499998807907104
1558048983294,3.628999948501587,10.803000450134277,-0.14300000667572021
1558048983348,3.4189999103546143,9.470999717712402,0.3440000116825104
1558048983476,2.757999897003174,7.269000053405762,-0.5360000133514404
1558048983536,3.0160000324249268,7.46999979019165,-0.3630000054836273
1558048983606,4.2230000495910645,10.11299991607666,0.01899999938905239
1558048983689,4.940999984741211,13.8100004196167,0.6700000166893005
1558048983744,3.628999948501587,11.95199966430664,4.500999927520752
1558048983800,2.0490000247955322,7.0,4.434000015258789
1558048983866,1.2730000019073486,8.206999778747559,5.007999897003174
1558048983936,2.4800000190734863,9.595999717712402,4.01200008392334
1558048983998,1.6660000085830688,8.140000343322754,3.687000036239624
1558048984074,0.3440000116825104,7.133999824523926,3.4089999198913574
1558048984130,0.9670000076293945,7.498000144958496,1.9819999933242798
1558048984196,0.621999979019165,8.494000434875488,0.8610000014305115
1558048984267,0.9190000295639038,8.465999603271484,1.0049999952316284
1558048984328,2.259999990463257,10.888999938964844,1.062999963760376
1558048984406,3.6579999923706055,13.253999710083008,-0.6600000262260437
1558048984460,-1.2640000581741333,11.866000175476074,7.382999897003174
1558048984676,1.5509999990463257,8.734000205993652,3.0450000762939453
1558048984732,2.4130001068115234,6.080999851226807,0.8999999761581421
1558048984790,2.308000087738037,6.5980000495910645,0.5929999947547913
1558048984869,2.6429998874664307,7.269000053405762,-0.28700000047683716
1558048984924,2.624000072479248,9.26099967956543,-0.37299999594688416
1558048985008,3.6010000705718994,12.53600025177002,0.29600000381469727
1558048985062,2.5369999408721924,13.906000137329102,3.1410000324249268
1558048985120,1.3209999799728394,6.750999927520752,4.672999858856201
1558048985207,6.138000011444092,9.194000244140625,-1.0049999952316284
1558048985267,1.9529999494552612,8.140000343322754,2.4230000972747803
1558048985325,1.3020000457763672,6.578999996185303,0.45899999141693115
1558048985384,2.0869998931884766,8.024999618530273,0.2290000021457672
1558048985450,1.253999948501587,8.600000381469727,-0.11400000005960464
1558048985525,1.8669999837875366,8.407999992370605,-0.8610000014305115
1558048985582,2.4030001163482666,11.204999923706055,0.01899999938905239
1558048985666,5.936999797821045,12.833000183105469,-2.996999979019165
1558048985726,-0.3919999897480011,11.722000122070312,6.061999797821045
1558048985796,7.326000213623047,7.785999774932861,-2.010999917984009
1558048985861,1.5800000429153442,10.199000358581543,1.9249999523162842
1558048985912,1.465000033378601,7.61299991607666,0.28700000047683716
1558048985987,3.0829999446868896,6.340000152587891,-0.1720000058412552
1558048986044,3.1410000324249268,7.382999897003174,-0.29600000381469727
1558048986110,3.2079999446868896,8.71500015258789,-1.809999942779541
1558048986176,2.930000066757202,11.550000190734863,0.29600000381469727
1558048986242,4.040999889373779,14.710000038146973,-1.0820000171661377
1558048986308,-0.11400000005960464,9.729999542236328,6.914000034332275
1558048986374,6.434999942779541,7.4029998779296875,-1.0049999952316284
1558048986440,1.8289999961853027,9.173999786376953,2.2980000972747803
1558048986506,1.6469999551773071,7.296999931335449,0.9380000233650208
1558048986638,1.5219999551773071,8.293000221252441,0.04699999839067459
1558048986902,-0.04699999839067459,9.968999862670898,6.348999977111816
1558048986968,6.166999816894531,7.2210001945495605,0.5929999947547913
1558048987034,2.546999931335449,11.175999641418457,0.6700000166893005
1558048987100,0.8330000042915344,8.187999725341797,1.6080000400543213
1558048987166,2.700000047683716,6.099999904632568,0.06700000166893005
1558048987232,2.9590001106262207,6.9720001220703125,-0.621999979019165
1558048987298,3.0260000228881836,7.660999774932861,-0.8519999980926514
1558048987364,3.562000036239624,10.28499984741211,-1.1770000457763672
1558048987430,4.318999767303467,11.961000442504883,-3.13100004196167
1558048987496,1.7619999647140503,14.527999877929688,5.439000129699707
1558048987562,3.390000104904175,6.607999801635742,-0.5450000166893005
1558048987628,4.2230000495910645,10.199000358581543,0.5740000009536743
1558048987694,2.3459999561309814,6.185999870300293,0.3160000145435333
1558048987760,1.6369999647140503,7.909999847412109,0.6890000104904175
1558048987826,1.5989999771118164,8.868000030517578,-0.3540000021457672
1558048987892,1.406999945640564,8.27400016784668,-0.5740000009536743
1558048987958,2.6619999408721924,9.652999877929688,-0.6890000104904175
1558048988024,3.1019999980926514,11.894000053405762,-1.7230000495910645
1558048988222,5.478000164031982,9.107000350952148,-0.257999986410141
1558048988354,1.6950000524520874,7.728000164031982,0.7080000042915344
1558048988420,2.872999906539917,6.914000034332275,-0.20999999344348907
1558048988486,3.13100004196167,7.047999858856201,-0.5070000290870667
1558048988552,3.0739998817443848,8.753000259399414,-1.5219999551773071
1558048988618,4.184999942779541,11.175999641418457,-0.5740000009536743
1558048988684,3.7060000896453857,12.48799991607666,-0.8519999980926514
1558048988750,-0.5360000133514404,9.67199993133545,5.315000057220459
1558048988816,5.888999938964844,8.685999870300293,-1.090999960899353
1558048988882,2.7290000915527344,8.991999626159668,2.0969998836517334
1558048988948,2.308000087738037,6.348999977111816,0.1720000058412552
1558048989014,1.6759999990463257,8.244999885559082,-0.04699999839067459
1558048989080,1.8289999961853027,8.916000366210938,-0.6890000104904175
1558048989146,2.259999990463257,8.666999816894531,-0.9480000138282776
1558048989212,2.4700000286102295,11.09000015258789,0.1340000033378601
1558048989345,-0.7940000295639038,10.295000076293945,7.440999984741211
1558048989411,7.939000129699707,10.008000373840332,0.20999999344348907
1558048989477,2.2690000534057617,9.164999961853027,1.034000039100647
1558048989542,0.33500000834465027,6.693999767303467,0.6029999852180481
1558048989609,2.6619999408721924,7.039000034332275,0.1720000058412552
1558048989675,3.3519999980926514,7.853000164031982,-0.6029999852180481
1558048989741,2.98799991607666,8.552000045776367,-0.6320000290870667
1558048989806,3.753999948501587,11.243000030517578,0.2290000021457672
1558048989873,3.380000114440918,13.484000205993652,-1.0820000171661377
1558048989938,0.6890000104904175,9.567000389099121,5.831999778747559
1558048990070,3.2079999446868896,8.619000434875488,1.0820000171661377
1558048990202,1.7230000495910645,8.331999778747559,-0.6029999852180481
1558048990269,1.8380000591278076,8.494000434875488,-0.45899999141693115
1558048990334,1.972000002861023,8.39900016784668,-1.0820000171661377
1558048990400,3.063999891281128,10.782999992370605,-0.32499998807907104
1558048990466,5.497000217437744,13.071999549865723,-1.4359999895095825
1558048990532,-0.5929999947547913,10.399999618530273,5.420000076293945
1558048990599,5.113999843597412,9.279999732971191,-1.9630000591278076
1558048990664,0.6119999885559082,10.28499984741211,1.1009999513626099
1558048990731,0.6790000200271606,7.679999828338623,0.8140000104904175
1558048990796,2.7290000915527344,6.923999786376953,-0.4300000071525574
1558048990862,2.5280001163482666,7.355000019073486,-0.2290000021457672
1558048990928,2.5759999752044678,9.079000473022461,-1.4359999895095825
1558048990995,3.322999954223633,11.232999801635742,-1.2920000553131104
1558048991146,-1.8960000276565552,11.175999641418457,5.534999847412109
1558048991193,6.7129998207092285,8.560999870300293,-1.5800000429153442
1558048991259,1.9919999837875366,8.244999885559082,1.1299999952316284
1558048993766,1.809999942779541,9.470999717712402,-0.7080000042915344
1558049050977,1.531999945640564,8.71500015258789,-0.04699999839067459
1558049051002,1.187000036239624,8.619000434875488,0.02800000086426735
1558049051017,1.1299999952316284,8.35099983215332,-0.2290000021457672
1558049051037,1.2059999704360962,8.427000045776367,-0.3160000145435333
1558049051060,1.4359999895095825,8.331999778747559,-0.6990000009536743
1558049051077,1.2640000581741333,8.236000061035156,-0.7179999947547913
1558049051097,1.1970000267028809,8.465999603271484,-0.5450000166893005
1558049051117,1.8480000495910645,8.791000366210938,-0.9279999732971191
1558049051137,2.3269999027252197,9.213000297546387,-0.9670000076293945
1558049051177,2.2690000534057617,10.744999885559082,-0.6029999852180481
1558049051199,2.2980000972747803,12.0,-0.8809999823570251
1558049051217,2.930000066757202,11.732000350952148,-1.503000020980835
1558049051237,3.8399999141693115,11.807999610900879,-3.447000026702881
1558049051277,2.375,12.038000106811523,2.0299999713897705
1558049051297,-0.10499999672174454,11.970999717712402,4.855000019073486
1558049051317,-0.9380000233650208,10.11299991607666,5.745999813079834
1558049051337,-0.008999999612569809,9.347000122070312,5.381999969482422
1558049051357,2.7100000381469727,8.331999778747559,2.671999931335449
1558049051398,7.144000053405762,9.079000473022461,-0.5450000166893005
1558049051478,1.4259999990463257,8.571000099182129,0.5260000228881836
1558049051517,-0.3160000145435333,7.335999965667725,1.1299999952316284
1558049051537,0.33500000834465027,7.105999946594238,1.1200000047683716
1558049051557,1.6660000085830688,7.498000144958496,0.9480000138282776
1558049051577,3.0160000324249268,7.728000164031982,0.32499998807907104
1558049051597,3.371000051498413,7.767000198364258,0.06700000166893005
1558049051617,3.5429999828338623,7.834000110626221,-0.1809999942779541
1558049051637,3.0160000324249268,7.785999774932861,-0.621999979019165
1558049051662,2.9110000133514404,7.718999862670898,-0.765999972820282
1558049051677,3.0450000762939453,7.909999847412109,-0.8610000014305115
1558049051697,3.2269999980926514,7.958000183105469,-1.3589999675750732
1558049051797,3.2750000953674316,11.041999816894531,0.04699999839067459
1558049051817,3.8970000743865967,11.463000297546387,-1.1299999952316284
1558049051837,4.309000015258789,11.722000122070312,-2.441999912261963
1558049051860,4.300000190734863,13.27299976348877,-0.4779999852180481
1558049051898,0.7179999947547913,14.029999732971191,4.242000102996826
1558049051938,-0.3440000116825104,8.762999534606934,5.1620001792907715
1558049051957,0.3160000145435333,6.607999801635742,3.322999954223633
1558049051977,2.565999984741211,6.234000205993652,1.6080000400543213
1558049051997,3.86899995803833,8.092000007629395,-0.16200000047683716
1558049052017,3.3320000171661377,9.336999893188477,0.01899999938905239
1558049052037,3.0160000324249268,10.03600025177002,0.6320000290870667
1558049052057,2.441999912261963,9.682000160217285,2.0390000343322754
1558049052077,2.7290000915527344,9.039999961853027,1.8960000276565552
1558049052097,2.4700000286102295,7.747000217437744,0.8899999856948853
1558049052137,1.9149999618530273,7.574999809265137,0.8709999918937683
1558049052157,0.9860000014305115,7.728000164031982,1.503000020980835
1558049052177,0.746999979019165,7.958000183105469,0.6890000104904175
1558049052197,0.8809999823570251,8.456000328063965,-0.3540000021457672
1558049052217,1.090999960899353,8.503999710083008,-0.9190000295639038
1558049052237,1.090999960899353,8.503999710083008,-0.6890000104904175
1558049052257,1.0240000486373901,8.359999656677246,-0.29600000381469727
1558049052277,0.9480000138282776,8.446999549865723,-0.45899999141693115
1558049052297,0.9190000295639038,8.39900016784668,-0.4779999852180481
1558049052321,0.7749999761581421,8.388999938964844,-0.8040000200271606
1558049052337,0.9190000295639038,8.532999992370605,-1.062999963760376
1558049052357,1.2640000581741333,8.675999641418457,-0.746999979019165
1558049052398,1.7619999647140503,10.131999969482422,-0.6510000228881836
1558049052418,1.8669999837875366,11.09000015258789,-1.0429999828338623
1558049052438,2.4130001068115234,12.498000144958496,-1.378999948501587
1558049052458,2.9489998817443848,12.670000076293945,-2.2309999465942383
1558049052478,4.414999961853027,13.215999603271484,-2.9590001106262207
1558049052498,3.753999948501587,13.723999977111816,-0.5070000290870667
1558049052521,1.5410000085830688,13.244999885559082,5.85099983215332
1558049052538,-0.5070000290870667,11.741000175476074,6.664999961853027
1558049052558,-0.9279999732971191,9.614999771118164,6.750999927520752
1558049052586,3.437999963760376,7.374000072479248,1.8480000495910645
1558049052638,5.783999919891357,8.178000450134277,-2.7290000915527344
1558049052678,2.4230000972747803,9.845000267028809,1.0049999952316284
1558049052698,1.062999963760376,9.720000267028809,1.781000018119812
1558049052719,0.0,8.609000205993652,1.1770000457763672
1558049052757,0.746999979019165,7.125,0.8040000200271606
1558049052817,3.178999900817871,7.6519999504089355,-0.37299999594688416
1558049052837,3.1600000858306885,7.9770002365112305,-0.5740000009536743
1558049052877,2.739000082015991,8.043999671936035,-0.8330000042915344
1558049052917,2.930000066757202,7.890999794006348,-1.2450000047683716
1558049052938,3.1600000858306885,8.072999954223633,-1.503000020980835
1558049052982,3.2269999980926514,9.557000160217285,-1.5410000085830688
1558049052997,2.556999921798706,10.515000343322754,-0.45899999141693115
1558049053017,2.9779999256134033,11.414999961853027,0.11400000005960464
1558049053077,3.628999948501587,12.899999618530273,-2.2980000972747803
1558049053097,2.2980000972747803,13.58899974822998,3.9070000648498535
1558049053117,1.503000020980835,14.039999961853027,5.113999843597412
1558049053137,0.49799999594688416,12.402000427246094,5.199999809265137
1558049053181,0.6600000262260437,6.348999977111816,2.1640000343322754
1558049053197,2.25,4.6539998054504395,0.2770000100135803
1558049053217,4.5970001220703125,6.38700008392334,-1.4259999990463257
1558049053277,3.1019999980926514,10.0649995803833,2.375
1558049053297,1.8669999837875366,9.20300006866455,2.499000072479248
1558049053317,1.503000020980835,8.03499984741211,1.4550000429153442
1558049053337,1.8289999961853027,7.785999774932861,0.257999986410141
1558049053357,1.8480000495910645,7.795000076293945,0.1340000033378601
1558049053378,1.49399995803833,7.939000129699707,0.24899999797344208
1558049053397,1.3309999704360962,8.187999725341797,0.1720000058412552
1558049053477,0.6790000200271606,8.27400016784668,-0.7080000042915344
1558049053497,0.9190000295639038,8.359999656677246,-0.6890000104904175
1558049053517,0.9480000138282776,8.418000221252441,-0.6600000262260437
1558049053537,0.8610000014305115,8.293000221252441,-0.8519999980926514
1558049053557,1.2640000581741333,8.418000221252441,-1.1100000143051147
1558049053577,1.49399995803833,8.666999816894531,-1.1970000267028809
1558049053597,1.6660000085830688,9.826000213623047,-0.8610000014305115
1558049053617,1.9819999933242798,10.305000305175781,-0.8330000042915344
1558049053642,2.930000066757202,11.82699966430664,-1.225000023841858
1558049053657,2.815000057220459,12.755999565124512,-1.5889999866485596
1558049053697,4.664000034332275,13.015000343322754,-3.111999988555908
1558049053757,-1.1490000486373901,12.392000198364258,4.730999946594238
1558049053777,-1.3980000019073486,9.911999702453613,6.061999797821045
1558049053797,1.5889999866485596,7.928999900817871,3.246000051498413
1558049053818,4.193999767303467,6.7230000495910645,1.7999999523162842
1558049053906,1.5219999551773071,9.604999542236328,1.5889999866485596
1558049053958,-0.19099999964237213,8.628999710083008,1.7519999742507935
1558049053977,0.5450000166893005,8.331999778747559,1.7039999961853027
1558049053998,1.6469999551773071,8.293000221252441,1.2350000143051147
1558049054038,3.4189999103546143,7.928999900817871,0.20999999344348907
1558049054057,3.303999900817871,7.660999774932861,-0.41100001335144043
1558049054078,2.872999906539917,7.46999979019165,-1.0149999856948853
1558049054104,2.7190001010894775,7.382999897003174,-1.1200000047683716
1558049054138,2.490000009536743,7.901000022888184,-0.9279999732971191
1558049054157,2.6519999504089355,8.293000221252441,-1.2059999704360962
1558049054178,3.006999969482422,8.685999870300293,-1.406999945640564
1558049054198,3.006999969482422,9.13599967956543,-1.1490000486373901
1558049054218,2.815000057220459,9.557000160217285,-0.6320000290870667
1558049054258,3.13100004196167,10.907999992370605,0.04699999839067459
1558049054278,3.447000026702881,11.166000366210938,-1.5509999990463257
1558049054302,3.5910000801086426,11.980999946594238,-2.5850000381469727
1558049054338,2.0299999713897705,12.803999900817871,1.7230000495910645
1558049054423,0.3059999942779541,6.291999816894531,3.8499999046325684
1558049054489,4.251999855041504,10.64900016784668,0.14300000667572021
1558049054555,3.0450000762939453,7.690000057220459,0.7369999885559082
1558049054687,1.3880000114440918,8.88700008392334,0.24899999797344208
1558049054885,2.4230000972747803,9.37600040435791,-0.6890000104904175
1558049054951,2.010999917984009,11.904000282287598,-1.503000020980835
1558049055017,2.872999906539917,12.718000411987305,1.9149999618530273
1558049055094,1.0820000171661377,6.817999839782715,2.5369999408721924
1558049055149,6.656000137329102,7.565000057220459,-1.7039999961853027
1558049055347,2.183000087738037,8.236000061035156,-0.5360000133514404
1558049055413,3.1700000762939453,10.045999526977539,-0.24899999797344208
1558049055743,2.9110000133514404,9.13599967956543,-0.20999999344348907
1558049055810,2.556999921798706,9.001999855041504,0.0
1558049055876,2.815000057220459,9.088000297546387,-0.3540000021457672
1558049055942,2.7860000133514404,9.480999946594238,-0.3630000054836273
1558049056139,2.7860000133514404,9.088000297546387,-0.4690000116825104
1558049056271,2.700000047683716,9.194000244140625,-0.3630000054836273
1558049056403,2.757999897003174,9.154999732971191,-0.29600000381469727
1558049056469,2.632999897003174,9.107000350952148,-0.3630000054836273
1558049056535,2.614000082015991,9.164999961853027,-0.4300000071525574
1558049056733,2.4130001068115234,9.26099967956543,-0.3160000145435333
1558049056931,2.4700000286102295,9.26099967956543,-0.28700000047683716
1558049057064,2.3940000534057617,9.173999786376953,0.05700000002980232
1558049057195,2.375,9.347000122070312,-0.257999986410141
1558049057393,2.431999921798706,9.307999610900879,-0.02800000086426735
1558049057459,2.4700000286102295,9.213000297546387,-0.0949999988079071
1558049057526,2.431999921798706,9.13599967956543,0.04699999839067459
1558049057658,2.4509999752044678,9.184000015258789,0.1720000058412552
1558049057789,2.4509999752044678,9.222000122070312,0.3160000145435333
1558049057921,2.5179998874664307,9.164999961853027,0.45899999141693115
1558049057996,2.499000072479248,8.96399974822998,0.640999972820282
1558049058053,2.5850000381469727,8.656999588012695,0.640999972820282
1558049058185,3.5910000801086426,10.276000022888184,-0.7080000042915344
1558049058251,3.2750000953674316,10.60099983215332,0.14300000667572021
1558049058515,3.7060000896453857,9.107000350952148,-1.3880000114440918
1558049058581,4.040999889373779,10.486000061035156,-0.5929999947547913
1558049058713,1.6080000400543213,9.767999649047852,4.3379998207092285
1558049058781,2.930000066757202,6.234000205993652,1.4550000429153442
1558049058911,2.125999927520752,8.359999656677246,1.8860000371932983
1558049058978,1.5219999551773071,8.159000396728516,1.225000023841858
1558049059110,1.465000033378601,8.503999710083008,-0.29600000381469727
1558049059241,2.3269999027252197,9.25100040435791,-1.062999963760376
1558049059439,0.5839999914169312,7.382999897003174,4.367000102996826
1558049059525,4.01200008392334,8.560999870300293,0.01899999938905239
1558049059545,2.680999994277954,9.347000122070312,1.7519999742507935
1558049059565,2.0390000343322754,9.949999809265137,2.0490000247955322
1558049059585,1.3980000019073486,9.126999855041504,1.9249999523162842
1558049059605,1.4170000553131104,8.03499984741211,1.781000018119812
1558049059625,1.8669999837875366,7.73799991607666,1.340000033378601
1558049059648,2.2980000972747803,7.4029998779296875,0.9760000109672546
1558049059665,2.7669999599456787,7.4029998779296875,0.8899999856948853
1558049059685,3.0929999351501465,7.556000232696533,0.8140000104904175
1558049059725,2.940000057220459,7.6519999504089355,0.11400000005960464
1558049059745,2.8529999256134033,7.660999774932861,-0.2290000021457672
1558049059765,3.0160000324249268,7.642000198364258,-0.5170000195503235
1558049059785,3.0160000324249268,7.671000003814697,-0.5170000195503235
1558049059805,2.872999906539917,7.872000217437744,-0.6890000104904175
1558049059826,2.757999897003174,8.178000450134277,-1.090999960899353
1558049059885,3.006999969482422,9.911999702453613,-0.04699999839067459
1558049059912,3.188999891281128,10.946000099182129,0.4020000100135803
1558049059925,3.312999963760376,11.444000244140625,0.24899999797344208
1558049059945,3.7920000553131104,11.866000175476074,-0.8999999761581421
1558049059965,4.051000118255615,12.718000411987305,-1.6950000524520874
1558049059985,3.9070000648498535,14.163999557495117,0.3160000145435333
1558049060005,1.684999942779541,14.355999946594238,4.75
1558049060025,0.6700000166893005,13.991999626159668,5.171000003814697
1558049060045,0.07599999755620956,9.442999839782715,6.061999797821045
1558049060065,1.062999963760376,6.866000175476074,3.8299999237060547
1558049060085,2.308000087738037,4.769000053405762,1.3980000019073486
1558049060145,4.145999908447266,9.682000160217285,0.6890000104904175
1558049060165,3.2750000953674316,10.878999710083008,2.193000078201294
1558049060185,2.134999990463257,9.940999984741211,2.86299991607666
1558049060205,2.2690000534057617,8.581000328063965,1.9249999523162842
1558049060225,2.700000047683716,7.355000019073486,0.9190000295639038
1558049060245,2.4700000286102295,6.923999786376953,0.45899999141693115
1558049060265,1.8960000276565552,7.039000034332275,0.5070000290870667
1558049060285,1.2640000581741333,7.431000232696533,0.7179999947547913
1558049060325,0.9570000171661377,8.255000114440918,0.29600000381469727
1558049060345,1.1770000457763672,8.303000450134277,0.20999999344348907
1558049060385,1.3209999799728394,8.083000183105469,-0.20999999344348907
1558049060405,1.1009999513626099,8.206999778747559,-0.41100001335144043
1558049060425,1.034000039100647,8.236000061035156,-0.621999979019165
1558049060486,1.8480000495910645,9.222000122070312,-0.24899999797344208
1558049060506,1.9819999933242798,10.227999687194824,-0.0860000029206276
1558049060546,2.4800000190734863,12.190999984741211,-0.9480000138282776
1558049060572,3.2939999103546143,12.631999969482422,-2.2209999561309814
1558049060605,5.63100004196167,13.550999641418457,-0.8519999980926514
1558049060645,0.008999999612569809,13.130000114440918,5.7270002365112305
1558049060686,-1.1390000581741333,8.560999870300293,5.497000217437744
1558049060786,3.0450000762939453,8.359999656677246,0.24899999797344208
1558049060826,0.765999972820282,10.265999794006348,2.5759999752044678
1558049060845,0.15299999713897705,9.729999542236328,2.1449999809265137
1558049060866,1.0240000486373901,8.571000099182129,1.7710000276565552
1558049060886,1.9819999933242798,8.159000396728516,0.5550000071525574
1558049060945,2.6429998874664307,7.382999897003174,0.2290000021457672
1558049061034,2.9779999256134033,7.39300012588501,-0.8040000200271606
1558049061046,2.9779999256134033,7.574999809265137,-0.9480000138282776
1558049061065,2.881999969482422,7.853000164031982,-1.406999945640564
1558049061085,2.8440001010894775,8.475000381469727,-1.6369999647140503
1558049061105,3.063999891281128,9.001999855041504,-1.3880000114440918
1558049061125,2.9779999256134033,9.652999877929688,-0.5929999947547913
1558049061145,2.6429998874664307,10.812000274658203,-0.23899999260902405
1558049061186,3.390000104904175,11.980999946594238,-1.225000023841858
1558049061205,3.562000036239624,13.503000259399414,-2.441999912261963
1558049061231,2.4700000286102295,13.95300006866455,1.2920000553131104
1558049061245,1.9819999933242798,14.135000228881836,4.625
1558049061265,1.2059999704360962,14.881999969482422,4.864999771118164
1558049061285,0.257999986410141,11.406000137329102,5.572999954223633
1558049061305,-0.1720000058412552,8.753000259399414,4.35699987411499
1558049061325,1.781000018119812,5.390999794006348,1.4739999771118164
1558049061345,3.7820000648498535,4.059999942779541,-0.3630000054836273
1558049061365,5.697999954223633,6.875999927520752,-1.2920000553131104
1558049061385,4.367000102996826,9.050000190734863,-1.1970000267028809
1558049061405,3.0829999446868896,10.083999633789062,1.7330000400543213
1558049061430,1.6080000400543213,9.614999771118164,2.671999931335449
1558049061445,1.4739999771118164,8.704999923706055,2.0299999713897705
1558049061465,1.7899999618530273,7.958000183105469,0.8519999980926514
1558049061485,2.115999937057495,7.307000160217285,0.45899999141693115
1558049061505,1.6369999647140503,7.191999912261963,0.3919999897480011
1558049061525,1.187000036239624,7.46999979019165,0.3440000116825104
1558049061545,1.062999963760376,7.853000164031982,0.2290000021457672
1558049061565,1.3020000457763672,8.121000289916992,-0.01899999938905239
1558049061585,1.3020000457763672,8.312000274658203,-0.28700000047683716
1558049061605,1.2350000143051147,8.340999603271484,-0.41100001335144043
1558049061628,1.0240000486373901,8.418000221252441,-0.5070000290870667
1558049061645,1.034000039100647,8.427000045776367,-0.6510000228881836
1558049061665,1.0820000171661377,8.532999992370605,-1.1490000486373901
1558049061705,2.183000087738037,8.954000473022461,-0.9279999732971191
1558049061725,2.6619999408721924,9.911999702453613,-0.3160000145435333
1558049061845,4.567999839782715,12.78499984741211,0.24899999797344208
1558049061865,1.6469999551773071,12.315999984741211,4.3379998207092285
1558049061925,1.6660000085830688,7.853000164031982,3.25600004196167
1558049061945,4.021999835968018,7.0960001945495605,2.441999912261963
1558049061965,6.559999942779541,7.5269999504089355,1.6080000400543213
1558049061985,5.966000080108643,8.848999977111816,-0.7179999947547913
1558049062005,4.193999767303467,8.800999641418457,-0.32499998807907104
1558049062025,2.624000072479248,9.67199993133545,0.8899999856948853
1558049062045,1.7519999742507935,9.586000442504883,0.7080000042915344
1558049062065,1.1770000457763672,8.59000015258789,0.7850000262260437
1558049062090,0.9380000233650208,7.296999931335449,0.9279999732971191
1558049062106,1.3020000457763672,6.923999786376953,0.5070000290870667
1558049062145,2.183000087738037,7.288000106811523,0.16200000047683716
1558049062185,2.9590001106262207,7.814000129699707,0.41100001335144043
1558049062206,3.265000104904175,7.948999881744385,-0.0949999988079071
1558049062266,3.246000051498413,7.948999881744385,-0.9480000138282776
1558049062288,3.0739998817443848,7.660999774932861,-1.2640000581741333
1558049062306,3.1600000858306885,7.958000183105469,-1.2450000047683716
1558049062325,3.188999891281128,8.581000328063965,-0.8999999761581421
1558049062386,3.677000045776367,11.060999870300293,-0.5170000195503235
1558049062425,4.913000106811523,12.555000305175781,-3.0739998817443848
1558049062446,4.414999961853027,13.043999671936035,0.3919999897480011
1558049062526,0.07599999755620956,8.159000396728516,4.826000213623047
1558049062552,1.062999963760376,5.545000076293945,1.4259999990463257
1558049062565,2.805999994277954,4.855000019073486,-0.4020000100135803
1558049062605,4.367000102996826,9.241000175476074,-1.5410000085830688
1558049062750,1.5410000085830688,7.46999979019165,0.16200000047683716
1558049062786,1.5989999771118164,8.407999992370605,0.0860000029206276
1558049062805,1.6080000400543213,8.581000328063965,-0.2290000021457672
1558049062951,1.628000020980835,8.675999641418457,-0.7749999761581421
1558049063017,2.490000009536743,11.21399974822998,-0.9279999732971191
1558049063083,5.285999774932861,12.04800033569336,-3.371000051498413
1558049063149,-0.6600000262260437,10.314000129699707,5.09499979019165
1558049063215,5.104000091552734,5.669000148773193,0.3630000054836273
1558049063281,2.3359999656677246,9.395000457763672,0.41100001335144043
1558049063347,-0.24899999797344208,8.321999549865723,0.6600000262260437
1558049063413,2.872999906539917,8.083000183105469,-0.4779999852180481
1558049063479,2.930000066757202,7.699999809265137,-0.7850000262260437
1558049063545,2.7290000915527344,8.072999954223633,-1.6369999647140503
1558049063611,2.930000066757202,9.777999877929688,-1.4739999771118164
1558049063677,2.757999897003174,11.645000457763672,-2.4609999656677246
1558049063743,1.2829999923706055,14.767000198364258,3.1019999980926514
1558049063809,0.7179999947547913,6.310999870300293,1.7999999523162842
1558049063941,1.6759999990463257,8.868000030517578,1.1200000047683716
1558049064007,1.1679999828338623,8.359999656677246,0.621999979019165
1558049064073,0.6510000228881836,8.991999626159668,0.1340000033378601
1558049064139,0.746999979019165,8.560999870300293,-0.5170000195503235
1558049064205,0.746999979019165,8.427000045776367,-0.8519999980926514
1558049064271,1.062999963760376,10.11299991607666,-0.2290000021457672
1558049064337,2.9210000038146973,11.836999893188477,-2.441999912261963
1558049064403,1.781000018119812,12.315999984741211,3.3610000610351562
1558049064470,1.253999948501587,7.1539998054504395,1.6369999647140503
1558049064535,4.002999782562256,7.718999862670898,-0.3630000054836273
1558049064601,1.1770000457763672,11.376999855041504,2.680999994277954
1558049064667,2.499000072479248,8.255000114440918,-0.01899999938905239
1558049064733,2.4700000286102295,8.418000221252441,-0.20999999344348907
1558049064799,2.375,9.86400032043457,-0.05700000002980232
1558049064865,1.5219999551773071,9.87399959564209,1.8669999837875366
1558049064931,3.6010000705718994,7.853000164031982,-0.23899999260902405
1558049064997,2.5369999408721924,8.972999572753906,-0.8610000014305115
1558049065063,2.2880001068115234,9.595999717712402,0.11400000005960464
1558049065129,2.6429998874664307,8.800999641418457,-0.5360000133514404
1558049065261,2.125999927520752,9.164999961853027,-0.3440000116825104
1558049065327,2.2019999027252197,9.42300033569336,-0.4020000100135803
1558049065393,2.25,9.232000350952148,-0.6990000009536743
1558049065459,2.0390000343322754,9.279999732971191,-0.3630000054836273
1558049065525,1.9919999837875366,9.25100040435791,-0.5170000195503235
1558049065591,1.9819999933242798,9.307999610900879,-0.5450000166893005
1558049065789,2.1540000438690186,9.336999893188477,-0.5070000290870667
1558049065855,2.0490000247955322,9.432999610900879,-0.5929999947547913
1558049065921,2.010999917984009,9.347000122070312,-0.3540000021457672
1558049065987,2.010999917984009,9.567000389099121,-0.12399999797344208
1558049066053,1.9149999618530273,9.510000228881836,0.06700000166893005
1558049066119,1.8380000591278076,9.432999610900879,0.1340000033378601
1558049066317,2.059000015258789,9.222000122070312,0.1809999942779541
1558049066383,2.125999927520752,9.279999732971191,0.3440000116825104
1558049066449,2.1540000438690186,9.173999786376953,-0.01899999938905239
1558049066515,2.1740000247955322,9.307999610900879,0.1720000058412552
1558049066581,2.1540000438690186,9.279999732971191,0.24899999797344208
1558049066647,2.1540000438690186,9.298999786376953,0.3630000054836273
1558049066713,2.2309999465942383,9.336999893188477,0.1720000058412552
1558049066779,2.183000087738037,9.347000122070312,0.3440000116825104
1558049066911,2.1449999809265137,9.307999610900879,0.4779999852180481
1558049066977,2.0490000247955322,9.222000122070312,0.6890000104904175
1558049067043,2.115999937057495,9.079000473022461,0.24899999797344208
1558049067109,2.1540000438690186,9.13599967956543,0.621999979019165
1558049067175,2.068000078201294,8.906000137329102,0.5740000009536743
1558049067373,3.5139999389648438,11.980999946594238,-0.11400000005960464
1558049067439,2.4230000972747803,9.529000282287598,0.7179999947547913
1558049067505,2.6429998874664307,7.2210001945495605,-0.41100001335144043
1558049067571,2.5369999408721924,6.750999927520752,-0.765999972820282
1558049067901,0.7179999947547913,7.0960001945495605,3.505000114440918
1558049068033,1.090999960899353,10.055999755859375,2.193000078201294
1558049068165,0.04699999839067459,8.197999954223633,1.312000036239624
1558049068231,0.5740000009536743,8.236000061035156,0.4779999852180481
1558049068297,0.2290000021457672,8.456000328063965,0.06700000166893005
1558049068363,1.090999960899353,8.571000099182129,-0.4399999976158142
1558049068429,1.1679999828338623,11.63599967956543,0.45899999141693115
1558049068495,2.2690000534057617,12.890000343322754,-2.9779999256134033
1558049068627,1.8960000276565552,7.210999965667725,4.816999912261963
1558049068693,3.0829999446868896,8.916000366210938,-0.7080000042915344
1558049068759,0.4880000054836273,8.762999534606934,0.6890000104904175
1558049068825,1.4359999895095825,7.5269999504089355,-0.06700000166893005
1558049068891,2.4800000190734863,7.785999774932861,-0.12399999797344208
1558049069287,4.2129998207092285,6.1479997634887695,-0.20100000500679016
1558049069353,3.4189999103546143,10.668000221252441,1.7519999742507935
1558049069419,1.2920000553131104,7.479000091552734,0.621999979019165
1558049069485,1.4459999799728394,7.948999881744385,0.3440000116825104
1558049069551,0.9480000138282776,8.159000396728516,-0.6320000290870667
1558049069683,2.0869998931884766,10.03600025177002,-0.16200000047683716
1558049069749,2.010999917984009,12.956999778747559,-1.6369999647140503
1558049069815,2.240999937057495,12.78499984741211,4.40500020980835
1558049069881,0.15299999713897705,8.388999938964844,3.3420000076293945
1558049069947,5.831999778747559,7.948999881744385,-0.0860000029206276
1558049070013,1.2920000553131104,9.279999732971191,0.8709999918937683
1558049070079,1.3209999799728394,8.168999671936035,0.45899999141693115
1558049070145,3.197999954223633,7.498000144958496,-0.41100001335144043
1558049070211,2.4700000286102295,7.6519999504089355,-0.6320000290870667
1558049070277,2.7190001010894775,8.656999588012695,-1.5509999990463257
1558049070343,2.872999906539917,11.147000312805176,-0.1340000033378601
1558049070409,3.753999948501587,13.39799976348877,-0.06700000166893005
1558049070475,-1.2920000553131104,9.73900032043457,6.636000156402588
1558049070541,5.429999828338623,6.464000225067139,-0.3440000116825104
1558049071070,-1.090999960899353,13.522000312805176,5.304999828338623
1558049071201,4.807000160217285,7.699999809265137,-1.4259999990463257
1558049071267,1.0429999828338623,8.819999694824219,1.5800000429153442
1558049071333,2.0490000247955322,7.642000198364258,0.4399999976158142
1558049071399,2.815000057220459,7.73799991607666,-0.7179999947547913
1558049071465,2.9779999256134033,7.920000076293945,-0.746999979019165
1558049071531,3.246000051498413,9.307999610900879,-0.8330000042915344
1558049071597,3.6389999389648438,12.210000038146973,-0.8899999856948853
1558049071663,2.125999927520752,13.972999572753906,4.730999946594238
1558049071729,0.5170000195503235,6.693999767303467,3.8499999046325684
1558049071795,5.113999843597412,8.236000061035156,-1.1770000457763672
1558049071862,1.465000033378601,9.088000297546387,1.684999942779541
1558049072059,1.2640000581741333,8.513999938964844,-0.9190000295639038
1558049072125,1.2730000019073486,8.71500015258789,-1.2920000553131104
1558049072257,4.021999835968018,13.321000099182129,-2.700000047683716
1558049072323,-0.44999998807907104,12.29699993133545,5.113999843597412
1558049072389,3.8499999046325684,5.6020002365112305,1.9630000591278076
1558049072654,2.98799991607666,7.823999881744385,-0.4690000116825104
1558049072917,3.9260001182556152,12.631999969482422,-1.6080000400543213
1558049072983,-0.3630000054836273,13.369000434875488,3.1019999980926514
1558049073049,1.3589999675750732,5.534999847412109,1.225000023841858
1558049073115,3.74399995803833,5.5929999351501465,1.0820000171661377
1558049073181,2.5759999752044678,11.243000030517578,2.4230000972747803
1558049073247,1.378999948501587,8.972999572753906,0.8999999761581421
1558049073313,1.49399995803833,8.571000099182129,0.8899999856948853
1558049073379,1.5700000524520874,9.67199993133545,0.5740000009536743
1558049073445,0.4300000071525574,10.975000381469727,3.322999954223633
1558049073511,2.5369999408721924,8.675999641418457,0.20999999344348907
1558049073577,1.0529999732971191,9.145999908447266,0.8330000042915344
1558049073643,0.7940000295639038,9.13599967956543,0.621999979019165
1558049073709,1.6369999647140503,9.222000122070312,0.11400000005960464
1558049073775,1.4170000553131104,9.26099967956543,0.4300000071525574
1558049073841,1.531999945640564,9.366000175476074,0.1720000058412552
1558049073908,1.809999942779541,9.395000457763672,-0.0949999988079071
1558049074106,2.3269999027252197,9.74899959564209,-0.257999986410141
1558049074567,2.2880001068115234,9.26099967956543,0.02800000086426735
1558049074699,2.3550000190734863,9.336999893188477,-0.1340000033378601
1558049074765,2.375,9.317999839782715,0.0
1558049074831,2.365000009536743,9.213000297546387,-0.05700000002980232
1558049074897,2.365000009536743,9.42300033569336,-0.20100000500679016
1558049074963,2.25,9.336999893188477,0.04699999839067459
1558049075029,2.2119998931884766,8.9350004196167,0.06700000166893005
1558049075095,2.3359999656677246,9.050000190734863,0.0860000029206276
1558049075161,2.5179998874664307,9.079000473022461,0.0949999988079071
1558049075293,2.881999969482422,8.791000366210938,0.0860000029206276
1558049075359,3.0260000228881836,8.541999816894531,0.11400000005960464
1558049075425,3.3989999294281006,9.595999717712402,-1.3209999799728394
1558049075491,3.0739998817443848,10.276000022888184,-0.20999999344348907
1558049075557,2.8440001010894775,8.206999778747559,-0.3440000116825104
1558049075689,2.930000066757202,7.872000217437744,-1.2920000553131104
1558049075821,3.562000036239624,10.840999603271484,-0.7369999885559082
1558049075887,3.734999895095825,12.027999877929688,-1.5410000085830688
1558049075953,-0.19099999964237213,10.399999618530273,5.515999794006348
1558049076151,1.6469999551773071,7.88100004196167,1.2640000581741333
1558049076217,1.465000033378601,7.804999828338623,0.2290000021457672
1558049076283,1.2730000019073486,8.791000366210938,0.06700000166893005
1558049076415,1.0240000486373901,7.756999969482422,-1.6950000524520874
1558049076481,1.9819999933242798,9.883000373840332,-0.9480000138282776
1558049076547,2.872999906539917,11.128000259399414,-3.063999891281128
1558049076613,3.0160000324249268,12.038000106811523,3.936000108718872
1558049076679,1.9249999523162842,10.371999740600586,2.690999984741211
1558049076811,1.5509999990463257,7.872000217437744,-0.6029999852180481
1558049076877,0.4300000071525574,6.234000205993652,0.2290000021457672
1558049076943,3.121999979019165,6.11899995803833,-0.5839999914169312
1558049077009,2.930000066757202,7.958000183105469,-1.6950000524520874
1558049077207,-0.7559999823570251,11.012999534606934,7.335999965667725
1558049077669,1.8380000591278076,11.616999626159668,-0.5550000071525574
1558049077801,-1.7430000305175781,10.458000183105469,7.1539998054504395
1558049077867,4.9029998779296875,7.2210001945495605,-0.11400000005960464
1558049077933,2.441999912261963,10.008000373840332,1.034000039100647
1558049077999,0.6600000262260437,7.556000232696533,0.7559999823570251
1558049078065,2.5280001163482666,6.550000190734863,0.3160000145435333
1558049078131,2.6519999504089355,7.066999912261963,-0.6320000290870667
1558049078197,2.690999984741211,8.380000114440918,-1.350000023841858
1558049078263,3.2170000076293945,11.95199966430664,-0.45899999141693115
1558049078329,4.165999889373779,13.569999694824219,-2.240999937057495
1558049078395,-0.3160000145435333,10.994000434875488,6.684000015258789
1558049078461,3.5910000801086426,5.869999885559082,0.29600000381469727
1558049078527,3.246000051498413,10.246999740600586,2.2790000438690186
1558049078593,1.5219999551773071,6.636000156402588,0.06700000166893005
1558049078659,1.2350000143051147,7.642000198364258,0.11400000005960464
1558049078725,0.9480000138282776,8.427000045776367,-0.5170000195503235
1558049078791,1.2350000143051147,8.340999603271484,-1.312000036239624
1558049079188,0.24899999797344208,8.380000114440918,0.7080000042915344
1558049079385,3.0929999351501465,7.958000183105469,-1.1579999923706055
1558049079451,3.1600000858306885,10.994000434875488,-0.9279999732971191
1558049079517,4.175000190734863,12.765999794006348,-2.4130001068115234
1558049079583,1.7230000495910645,13.416999816894531,4.730999946594238
1558049079649,0.28700000047683716,7.795000076293945,2.7960000038146973
1558049079715,3.734999895095825,9.13599967956543,1.062999963760376
1558049079847,0.8899999856948853,8.532999992370605,1.5410000085830688
1558049079913,1.062999963760376,8.303000450134277,0.4880000054836273
1558049079979,0.9380000233650208,8.465999603271484,0.5550000071525574
1558049080045,2.25,9.930999755859375,0.5170000195503235
1558049080111,3.197999954223633,13.14900016784668,-0.1340000033378601
1558049080177,0.2680000066757202,13.484000205993652,4.510000228881836
1558049080243,1.9819999933242798,6.0329999923706055,3.8499999046325684
1558049080309,3.5329999923706055,10.16100025177002,1.2829999923706055
1558049080573,2.6519999504089355,7.9679999351501465,0.2290000021457672
1558049080969,2.2119998931884766,5.745999813079834,0.746999979019165
1558049081167,1.9249999523162842,8.369999885559082,1.0820000171661377
1558049081233,1.6369999647140503,8.991999626159668,0.1720000058412552
1558049081299,1.8960000276565552,10.592000007629395,3.0350000858306885
1558049081497,1.253999948501587,9.347000122070312,0.20100000500679016
1558049081563,2.0299999713897705,8.734000205993652,0.11400000005960464
1558049081629,1.5700000524520874,9.031000137329102,0.20100000500679016
1558049081695,1.9919999837875366,9.67199993133545,0.1340000033378601
1558049081761,1.9819999933242798,9.432999610900879,-0.20999999344348907
1558049081893,2.010999917984009,9.395000457763672,-0.04699999839067459
1558049081959,2.0390000343322754,9.404000282287598,0.0
1558049082025,1.972000002861023,9.050000190734863,0.2770000100135803
1558049082091,1.9049999713897705,9.164999961853027,-0.05700000002980232
1558049082421,1.8960000276565552,9.42300033569336,0.28700000047683716
1558049082686,3.687000036239624,10.515000343322754,-0.9760000109672546
1558049082817,2.7860000133514404,8.27400016784668,-0.1809999942779541
1558049082883,2.4700000286102295,6.750999927520752,-0.6029999852180481
1558049082949,2.5179998874664307,7.230000019073486,-0.7080000042915344
1558049083015,3.0739998817443848,9.595999717712402,-0.5070000290870667
1558049083081,4.769000053405762,12.555000305175781,-0.8999999761581421
1558049083147,2.490000009536743,13.293000221252441,4.261000156402588
1558049083213,1.4170000553131104,7.1539998054504395,4.126999855041504
1558049095070,3.2170000076293945,8.446999549865723,1.6950000524520874
1558049095150,6.080999851226807,7.747000217437744,-1.3209999799728394
1558049095215,1.7430000305175781,9.164999961853027,3.0160000324249268
1558049095281,1.9049999713897705,7.5269999504089355,0.2770000100135803
1558049095413,1.503000020980835,8.197999954223633,-0.1340000033378601
1558049095479,1.9149999618530273,8.255000114440918,-0.7850000262260437
1558049095611,5.497000217437744,13.475000381469727,-2.3550000190734863
1558049095677,-0.5929999947547913,11.003999710083008,6.204999923706055
1558049095743,4.883999824523926,5.688000202178955,0.0949999988079071
1558049095809,2.059000015258789,9.826000213623047,1.7519999742507935
1558049119995,0.33500000834465027,8.456000328063965,0.8140000104904175
1558049120015,0.5260000228881836,8.704999923706055,0.6700000166893005
1558049120062,0.5360000133514404,8.83899974822998,-0.20100000500679016
1558049120075,0.6029999852180481,8.878000259399414,-0.05700000002980232
1558049120095,1.1009999513626099,8.723999977111816,-0.7369999885559082
1558049120123,1.465000033378601,8.88700008392334,-1.2350000143051147
1558049120135,1.6950000524520874,9.489999771118164,-1.1299999952316284
1558049120155,2.614000082015991,9.949999809265137,-0.28700000047683716
1558049120175,2.5850000381469727,10.812000274658203,-0.0860000029206276
1558049120206,1.8569999933242798,13.187000274658203,0.04699999839067459
1558049120215,1.684999942779541,13.475000381469727,-0.1720000058412552
1558049120235,2.2019999027252197,13.647000312805176,-0.7179999947547913
1558049120255,1.8380000591278076,13.522000312805176,1.6369999647140503
1558049120275,-0.0949999988079071,13.130000114440918,5.056000232696533
1558049120295,-0.6600000262260437,11.817999839782715,5.802999973297119
1558049120322,-0.20100000500679016,9.088000297546387,5.401000022888184
1558049120335,1.2350000143051147,7.479000091552734,4.01200008392334
1558049120355,2.7860000133514404,6.359000205993652,2.0490000247955322
1558049120375,4.453000068664551,6.291999816894531,0.7749999761581421
1558049120395,3.677000045776367,7.296999931335449,0.0949999988079071
1558049120416,2.7960000038146973,8.619000434875488,0.8230000138282776
1558049120435,1.6080000400543213,10.28499984741211,2.2119998931884766
1558049120455,1.4170000553131104,10.486000061035156,3.505000114440918
1558049120475,1.6180000305175781,9.854000091552734,3.437999963760376
1558049120495,2.2980000972747803,8.22599983215332,2.7290000915527344
1558049120535,2.8440001010894775,7.355000019073486,1.1970000267028809
1558049120555,2.6429998874664307,7.296999931335449,0.8140000104904175
1558049120575,2.757999897003174,7.46999979019165,0.8519999980926514
1558049120595,2.8340001106262207,7.728000164031982,0.621999979019165
1558049120615,2.7960000038146973,7.986999988555908,0.6890000104904175
1558049120635,2.757999897003174,8.062999725341797,0.28700000047683716
1558049120655,2.8340001106262207,8.168999671936035,0.16200000047683716
1558049120675,2.996999979019165,8.121000289916992,-0.0949999988079071
1558049120695,2.9590001106262207,8.27400016784668,-0.04699999839067459
1558049120736,2.690999984741211,8.868000030517578,-0.5170000195503235
1558049120756,2.5369999408721924,9.126999855041504,-0.9480000138282776
1558049120795,1.8289999961853027,10.324000358581543,-0.37299999594688416
1558049120816,2.2309999465942383,11.09000015258789,-0.23899999260902405
1558049120835,2.7960000038146973,12.210000038146973,-0.4690000116825104
1558049120876,3.055000066757202,11.989999771118164,-1.312000036239624
1558049120896,3.390000104904175,12.78499984741211,-0.5170000195503235
1558049120916,2.7769999504089355,12.708000183105469,3.1600000858306885
1558049120956,1.1490000486373901,9.088000297546387,5.955999851226807
1558049120996,1.7139999866485596,7.239999771118164,5.745999813079834
1558049121056,3.944999933242798,9.614999771118164,1.4550000429153442
1558049121076,3.9639999866485596,8.791000366210938,1.2730000019073486
1558049121136,2.259999990463257,8.015999794006348,2.010999917984009
1558049121196,0.8420000076293945,9.164999961853027,3.0350000858306885
1558049121216,0.6990000009536743,8.972999572753906,2.2980000972747803
1558049121236,0.746999979019165,8.878000259399414,2.0490000247955322
1558049121276,1.225000023841858,9.347000122070312,1.781000018119812
1558049121296,1.340000033378601,9.194000244140625,1.7039999961853027
1558049121316,1.5800000429153442,8.848999977111816,1.684999942779541
1558049121336,1.5700000524520874,8.52299976348877,1.225000023841858
1558049121415,1.465000033378601,7.374000072479248,0.01899999938905239
1558049121475,1.8669999837875366,7.642000198364258,-0.7850000262260437
1558049121495,1.809999942779541,8.494000434875488,-0.5929999947547913
1558049121515,1.6950000524520874,9.107000350952148,-0.1809999942779541
1558049121535,1.684999942779541,9.682000160217285,0.11400000005960464
1558049121555,1.49399995803833,11.550000190734863,0.0860000029206276
1558049121575,2.010999917984009,11.770000457763672,-0.4300000071525574
1558049121595,2.9489998817443848,11.866000175476074,-1.5219999551773071
1558049121615,4.078999996185303,12.986000061035156,-1.1579999923706055
1558049121642,3.1019999980926514,13.71399974822998,1.7999999523162842
1558049121655,2.3269999027252197,13.46500015258789,2.690999984741211
1558049121675,-0.20999999344348907,11.807999610900879,4.434000015258789
1558049121715,0.257999986410141,6.817999839782715,3.552999973297119
1558049121735,3.2269999980926514,4.874000072479248,0.9670000076293945
1558049121755,4.75,4.021999835968018,-0.37299999594688416
1558049121775,5.113999843597412,6.636000156402588,-1.684999942779541
1558049121795,3.6480000019073486,8.359999656677246,-0.9190000295639038
1558049121815,2.546999931335449,10.256999969482422,0.6320000290870667
1558049121840,1.8380000591278076,11.692999839782715,2.375
1558049121855,1.4839999675750732,11.529999732971191,2.7190001010894775
1558049121895,1.944000005722046,9.116999626159668,1.49399995803833
1558049121915,2.5759999752044678,8.369999885559082,0.4300000071525574
1558049121935,2.680999994277954,7.767000198364258,-0.0860000029206276
1558049121955,2.8440001010894775,7.556000232696533,-0.32499998807907104
1558049121975,2.930000066757202,7.642000198364258,-0.5550000071525574
1558049121995,2.815000057220459,7.939000129699707,-0.6510000228881836
1558049122015,2.7669999599456787,8.359999656677246,-0.7179999947547913
1558049122038,2.7190001010894775,8.571000099182129,-0.5360000133514404
1558049122055,2.441999912261963,8.762999534606934,-0.4300000071525574
1558049122075,2.183000087738037,9.050000190734863,-0.5450000166893005
1558049122115,3.178999900817871,9.73900032043457,-0.28700000047683716
1558049122135,3.303999900817871,10.11299991607666,-0.4399999976158142
1558049122155,3.390000104904175,10.170000076293945,-1.1970000267028809
1558049122175,3.505000114440918,10.199000358581543,-1.2450000047683716
1558049122195,3.562000036239624,9.701000213623047,-1.465000033378601
1558049122236,3.3320000171661377,11.368000030517578,-2.068000078201294
1558049122255,0.8230000138282776,11.425000190734863,1.2059999704360962
1558049122275,-0.6320000290870667,10.467000007629395,3.390000104904175
1558049122302,-0.20999999344348907,8.331999778747559,1.1970000267028809
1558049122315,1.6950000524520874,7.5269999504089355,0.5170000195503235
1558049122335,3.3989999294281006,7.210999965667725,-1.503000020980835
1558049122355,3.993000030517578,7.6519999504089355,-1.5889999866485596
1558049122375,3.0260000228881836,8.532999992370605,-0.8519999980926514
1558049122395,2.2119998931884766,8.925000190734863,0.0
1558049122435,1.9819999933242798,8.656999588012695,-1.090999960899353
1558049122455,2.115999937057495,8.571000099182129,-1.0149999856948853
1558049122475,2.183000087738037,8.96399974822998,-0.6600000262260437
1558049122500,2.2790000438690186,9.355999946594238,-0.5360000133514404
1558049122535,1.9049999713897705,9.883000373840332,-0.8230000138282776
1558049122555,1.9249999523162842,9.682000160217285,-1.1490000486373901
1558049122575,1.9919999837875366,9.395000457763672,-1.2920000553131104
1558049122595,2.068000078201294,8.906000137329102,-1.4550000429153442
1558049122615,2.1059999465942383,8.704999923706055,-1.406999945640564
1558049122635,2.010999917984009,8.685999870300293,-1.350000023841858
1558049122655,2.0299999713897705,8.743000030517578,-1.2350000143051147
1558049122675,2.0490000247955322,8.982999801635742,-1.090999960899353
1558049122715,2.125999927520752,9.557000160217285,-1.0049999952316284
1558049122735,2.010999917984009,9.489999771118164,-0.8999999761581421
1558049122775,2.0869998931884766,9.54800033569336,-0.8519999980926514
1558049122795,2.115999937057495,9.404000282287598,-0.7749999761581421
1558049122815,2.193000078201294,9.42300033569336,-0.8899999856948853
1558049122835,2.2690000534057617,9.347000122070312,-1.0149999856948853
1558049122875,2.365000009536743,9.059000015258789,-0.9670000076293945
1558049122896,2.25,9.107000350952148,-0.9480000138282776
1558049122935,2.1740000247955322,9.13599967956543,-0.8809999823570251
1558049122975,2.1740000247955322,9.336999893188477,-0.9959999918937683
1558049122995,2.134999990463257,9.432999610900879,-0.8519999980926514
1558049123015,2.1449999809265137,9.480999946594238,-0.7850000262260437
1558049123035,2.125999927520752,9.42300033569336,-0.8610000014305115
1558049123055,1.9819999933242798,9.279999732971191,-0.9190000295639038
