timestamp,AccX,AccY,AccZ,CompassSensor
1561308784143,0.8906430602073669,9.864110946655273,6.646304130554199,307.08719727354446
1561308784176,0.6224924325942993,,,
1561308784177,,7.948749542236328,3.313575267791748,315.6750468340008
1561308784206,,,,317.5114661357638
1561308784246,0.727837324142456,8.255207061767578,3.7828385829925537,316.3637962797157
1561308784286,,,,316.808602104129
1561308784314,0.7757213711738586,8.485051155090332,2.7102363109588623,314.11303038214305
1561308784345,,,,314.18801561394605
1561308784385,0.6607996821403503,8.542511940002441,2.1739351749420166,314.50637073116036
1561308784425,,,,312.12462912606355
1561308784457,0.47884035110473633,,,
1561308784458,,8.5903959274292,1.8195933103561401,315.40851919220853
1561308784493,,,,311.0280559151963
1561308784525,1.7717092037200928,9.519346237182617,0.9768342971801758,264.3826928277524
1561308784554,,,,259.7959954038463
1561308784595,0.6129156351089478,,,
1561308784596,,10.381258964538574,3.44765043258667,307.7968163622684
1561308784627,,,,302.1564051645368
1561308784665,0.8236053586006165,,,
1561308784667,,,,154.925315056329
1561308784668,,10.879252433776855,-4.20421838760376,
1561308784700,,,,152.9467731783164
1561308784734,-1.292868971824646,11.827356338500977,3.3423056602478027,333.9718310071645
1561308784764,,,,332.1728240665803
1561308784803,-4.568136692047119,,,
1561308784804,,9.481039047241211,1.091755986213684,47.766613771782374
1561308784834,,,,38.574029507496846
1561308784879,-0.45010992884635925,8.686163902282715,-0.8236053586006165,103.99966366133486
1561308784904,,,,105.23928152398966
1561308784952,0.20111294090747833,,,
1561308784953,,,0.6512228846549988,289.1529134377481
1561308784954,,5.784391403198242,,
1561308784974,,,,292.4229006538376
1561308785016,2.3271639347076416,10.630255699157715,6.378153324127197,271.96385446681893
1561308785057,,,,274.63333145108083
1561308785086,0.33518823981285095,,,
1561308785087,,,,159.582752749469
1561308785088,,10.15141487121582,-0.7661445140838623,
1561308785114,,,,158.6619886078379
1561308785154,1.4269442558288574,10.496180534362793,-0.9576807022094727,189.4204651018921
1561308785184,,,,189.55303907368193
1561308785228,0.08619125932455063,11.674127578735352,2.892195701599121,303.62655898715246
1561308785254,,,,299.1151746441294
1561308785294,1.5322890281677246,,,
1561308785295,,10.591948509216309,0.7374141216278076,241.11600858994086
1561308785326,,,,238.49522402427192
1561308785364,-0.3064578175544739,12.48815631866455,-2.8826189041137695,132.01893695761393
1561308785395,,,,133.37804897979808
1561308785434,0.7565677165985107,,1.3982137441635132,273.5728011484638
1561308785435,,10.256759643554688,,
1561308785468,,,,273.6321145112162
1561308785503,1.50355863571167,,,
1561308785504,,5.679046630859375,-1.072602391242981,183.93671112296397
1561308785535,,,,184.30365620593375
1561308785581,-2.3750481605529785,,,
1561308785582,,,1.2449848651885986,17.731258170264994
1561308785583,,10.27591323852539,,
1561308785604,,,,16.741707193502748
1561308785645,-1.072602391242981,6.57926607131958,-0.009576806798577309,46.94992805272392
1561308785679,,,,44.978267590300106
1561308785719,-0.45010992884635925,13.618219375610352,0.545877993106842,347.24109905493674
1561308785745,,,,345.86951937619637
1561308785786,-0.8236053586006165,10.496180534362793,-1.1683704853057861,99.17833557906044
1561308785814,,,,92.81303640471543
1561308785854,-0.26815059781074524,8.772355079650879,-0.6512228846549988,102.35439403368389
1561308785884,,,,96.95522511743718
1561308785929,-1.800439715385437,,0.5841852426528931,9.856981524288358
1561308785930,,7.058106422424316,,
1561308785955,,,,7.3019614350429265
1561308786002,1.216254472732544,7.65186882019043,1.455674648284912,242.99676947979555
1561308786026,,,,242.08272624430776
1561308786068,-0.4213795065879822,,,
1561308786069,,15.006855964660645,-4.6255974769592285,120.23412856367392
1561308786104,,,,122.55767695704222
1561308786136,4.606443881988525,,,
1561308786137,,8.149862289428711,0.4213795065879822,200.24030436989267
1561308786172,,,,204.07926683441167
1561308786203,-4.309563159942627,,,
1561308786204,,11.923124313354492,-1.1779472827911377,69.56178156423891
1561308786234,,,,72.18940314926698
1561308786281,-1.292868971824646,,,
1561308786282,,4.721365928649902,0.28730419278144836,30.560062686388733
1561308786304,,,,29.19304813533489
1561308786349,0.45010992884635925,10.113107681274414,2.4229321479797363,279.886443602116
1561308786385,,,,282.4939297894709
1561308786419,-0.6320692300796509,,,
1561308786421,,15.409082412719727,-0.09576806426048279,46.014714645903666
1561308786453,,,,44.90469620765532
1561308786488,-1.742978811264038,11.099518775939941,-1.6089035272598267,88.33401691307449
1561308786515,,,,83.37781991544898
1561308786554,0.6416460275650024,7.556100368499756,1.522712230682373,267.0889503806949
1561308786585,,,,264.00108332863465
1561308786637,-0.9385270476341248,,,
1561308786640,,,,60.3248318061996
1561308786641,,6.033388137817383,-0.4884171485900879,
1561308786659,,,,55.04904342712001
1561308786705,2.5953147411346436,10.936713218688965,5.142745018005371,247.24938869101805
1561308786736,,,,247.57689626172015
1561308786771,-1.9057846069335938,18.464082717895508,-0.24899697303771973,31.926687916659944
1561308786807,,,,34.3265500136248
1561308786842,5.583278179168701,10.553641319274902,0.08619125932455063,200.22361138756116
1561308786871,,,,205.31039477192815
1561308786903,-0.4596867263317108,,,
1561308786904,,8.743624687194824,0.23942017555236816,4.203174191160315
1561308786938,,,,7.595330866499694
1561308786987,-1.8195933103561401,,,
1561308786989,,5.104437828063965,-0.9672574996948242,83.36523187680865
1561308787004,,,,84.79328099828575
1561308787053,0.17238251864910126,,,282.033493077142
1561308787054,,11.15697956085205,5.410895824432373,
1561308787075,,,,281.87809944333503
1561308787116,-1.2066776752471924,,,
1561308787117,,16.644489288330078,3.3039982318878174,320.6907552698646
1561308787147,,,,319.0874537395688
1561308787183,1.742978811264038,,,
1561308787184,,9.375694274902344,-5.659893035888672,152.118640062209
1561308787214,,,,150.34912929355548
1561308787253,-0.6512228846549988,,,
1561308787254,,10.429142951965332,-0.12449848651885986,46.45181260183864
1561308787284,,,,40.21028328544344
1561308787330,-0.181959331035614,,,
1561308787332,,,,285.361072448313
1561308787333,,5.324704647064209,1.8770540952682495,
1561308787354,,,,283.2243912004471
1561308787395,3.1220390796661377,,,
1561308787396,,7.393294811248779,3.1316158771514893,232.8467395429414
1561308787425,,,,232.40672509623084
1561308787463,-3.428496837615967,,,
1561308787464,,19.613300323486328,-1.7621324062347412,58.59919817277421
1561308787504,,,,56.31789108432781
1561308787545,6.799532890319824,,,
1561308787546,,8.810662269592285,0.24899697303771973,198.29777124918428
1561308787565,,,,202.20039107676791
1561308787603,-0.2968810200691223,,,
1561308787604,,6.0621185302734375,2.097320795059204,288.5352457707255
1561308787634,,,,291.26693211794793
1561308787682,-3.2848446369171143,,,
1561308787683,,6.818686485290527,-1.2258312702178955,72.20148575390874
1561308787704,,,,70.8380707125475
1561308787747,0.181959331035614,9.548076629638672,7.785943984985352,263.6910883629645
1561308787779,,,,264.56795487879987
1561308787814,0.19153612852096558,16.318878173828125,-3.0837318897247314,126.14026144087563
1561308787848,,,,124.35784161469078
1561308787884,1.5514427423477173,10.524910926818848,0.8044517636299133,227.9441663604897
1561308787920,,,,222.99844004286177
1561308787953,-1.4748282432556152,,,
1561308787954,,9.710882186889648,1.9057846069335938,320.2414790866395
1561308787984,,,,317.4079375434193
1561308788028,-0.9576807022094727,,,
1561308788029,,6.521805286407471,0.7661445140838623,335.2038656522933
1561308788054,,,,333.4171069484382
1561308788095,4.223371982574463,,,
1561308788097,,4.9799394607543945,3.8977603912353516,224.2351140939843
1561308788128,,,,223.91073474992203
1561308788163,-0.06703764945268631,,,
1561308788165,,16.338031768798828,-2.231395959854126,109.5737605524148
1561308788195,,,,107.72836638208241
1561308788238,4.2329487800598145,9.375694274902344,1.1109095811843872,202.7689496836581
1561308788270,,,,203.8891280282969
1561308788303,-1.3120225667953491,,,
1561308788304,,10.54406452178955,1.3407529592514038,324.681511858498
1561308788334,,,,331.4764623750354
1561308788383,-2.451662540435791,6.129156112670898,-0.19153612852096558,39.593810901525615
1561308788417,,,,42.992775994807005
1561308788452,1.216254472732544,6.57926607131958,4.558559894561768,253.57390480582893
1561308788490,,,,252.13739991015933
1561308788514,-1.6376339197158813,13.21599292755127,-6.301538944244385,116.83770771585836
1561308788545,,,,115.11048947854553
1561308788583,1.072602391242981,,,
1561308788584,,10.72602367401123,-3.773261785507202,137.17944540388203
1561308788620,,,,136.29362451004474
1561308788654,0.08619125932455063,9.107542991638184,-0.09576806426048279,153.51090582262444
1561308788684,,,,148.8140306172168
1561308788735,-0.07661445438861847,6.358999729156494,-1.1300631761550903,109.38241280281687
1561308788758,,,,107.39578398082696
1561308788796,2.6240451335906982,,,
1561308788797,,5.430049419403076,-0.047884032130241394,190.87178467787135
1561308788825,,,,191.00908514056698
1561308788874,0.3734954595565796,14.690821647644043,-0.6991068720817566,134.27550851598107
1561308788896,,,,133.91237467856817
1561308788934,1.4173674583435059,12.660538673400879,-2.2218191623687744,141.84469683343252
1561308788964,,,,145.3833358801461
1561308789003,0.9002198576927185,,,
1561308789004,,9.768342971801758,1.9057846069335938,252.44412321521713
1561308789034,,,,254.1864703215415
1561308789080,0.10534487664699554,,,
1561308789082,,4.338293552398682,0.10534487664699554,242.90225332206091
1561308789115,,,,246.20611144624445
1561308789151,0.24899697303771973,,,
1561308789152,,8.006210327148438,4.338293552398682,263.12248194475006
1561308789177,,,,267.44373089675287
1561308789214,2.2888567447662354,,,255.08940766943886
1561308789215,,13.263877868652344,6.5696892738342285,
1561308789246,,,,253.1113097537223
1561308789283,-5.717353820800781,,,
1561308789284,,14.834473609924316,-7.843404769897461,109.91996235087521
1561308789318,,,,108.12339720291925
1561308789353,0.7565677165985107,,,
1561308789354,,7.469909191131592,2.470816135406494,257.4722830859379
1561308789386,,,,257.1542899687496
1561308789435,-0.8906430602073669,,,
1561308789436,,6.636727333068848,0.9768342971801758,326.8028968977177
1561308789458,,,,324.30139817080845
1561308789496,2.4899697303771973,6.1770405769348145,2.75812029838562,230.00555843313452
1561308789525,,,,226.7149372155625
1561308789568,0.5267243981361389,,1.0630255937576294,255.36726659506417
1561308789569,,18.76096534729004,,
1561308789599,,,,256.04786762509923
1561308789643,4.280832767486572,9.184157371520996,-2.164358377456665,171.47372960386767
1561308789668,,,,174.25555636978714
1561308789716,1.8387469053268433,4.242525577545166,1.656787633895874,224.4255124472876
1561308789766,,,,228.0304179893286
1561308789781,-3.227383852005005,8.283937454223633,1.3120225667953491,3.50951725452677
1561308789818,,,,10.33096079419414
1561308789846,0.15322890877723694,,,
1561308789848,,8.226476669311523,2.7006595134735107,278.653164155011
1561308789886,,,,282.77054562066724
1561308789918,-0.8523358106613159,,,
1561308789920,,17.822437286376953,2.518700122833252,315.0105274843665
1561308789945,,,,313.56256153126964
1561308789991,0.6512228846549988,10.60152530670166,-4.817133903503418,138.99396711916597
1561308790014,,,,135.82799685394664
1561308790053,0.26815059781074524,,,
1561308790054,,8.513781547546387,-0.14365209639072418,177.63148665009268
1561308790084,,,,171.77080185162822
1561308790135,0.08619125932455063,,,
1561308790136,,8.628703117370605,1.5322890281677246,278.19806865061304
1561308790154,,,,277.3188183987573
1561308790193,2.2218191623687744,,,
1561308790202,,8.925583839416504,4.347870349884033,243.91056682847324
1561308790228,,,,243.68951458617494
1561308790264,3.5434184074401855,,,
1561308790265,,12.622231483459473,-3.3039982318878174,158.91593504117898
1561308790295,,,,159.18015407903178
1561308790334,2.786850690841675,9.768342971801758,-0.3926490843296051,187.99955352809764
1561308790367,,,,189.7649388624925
1561308790404,-1.6184803247451782,9.720458984375,-1.1683704853057861,65.92516345388151
1561308790441,,,,71.08608854168898
1561308790476,0.33518823981285095,7.058106422424316,3.9839515686035156,262.82515697999025
1561308790505,,,,272.26988109258133
1561308790545,0.3734954595565796,7.8529815673828125,4.9799394607543945,269.92481077313835
1561308790581,,,,274.0116612932046
1561308790616,-0.4596867263317108,13.493721008300781,-4.807557106018066,129.0323547807558
1561308790651,,,,125.58282238195423
1561308790684,1.5897499322891235,,,247.75067676477283
1561308790685,,11.836933135986328,1.50355863571167,
1561308790725,,,,243.41473607586533
1561308790753,-3.1507694721221924,,,
1561308790754,,13.014880180358887,1.3120225667953491,5.709391839480475
1561308790784,,,,5.454228351806648
1561308790830,-1.867477297782898,,,
1561308790831,,6.9240312576293945,0.2106897532939911,26.10994514022076
1561308790854,,,,21.95788168150648
1561308790899,4.242525577545166,3.1220390796661377,3.2178070545196533,225.8917901375492
1561308790928,,,,225.22628382557986
1561308790964,2.5091233253479004,13.97256088256836,-0.6703764796257019,187.35575355731055
1561308790998,,,,186.69325252857607
1561308791036,0.4118026793003082,13.053187370300293,-0.545877993106842,150.58535821618955
1561308791064,,,,152.1512883664417
1561308791110,2.671929121017456,,,
1561308791111,,7.939172744750977,0.7661445140838623,212.01350144224364
1561308791135,,,,217.932475075085
1561308791178,-2.9975404739379883,,,42.06818694724075
1561308791179,,8.130708694458008,0.17238251864910126,
1561308791204,,,,43.517979975940534
1561308791248,1.2066776752471924,4.462791919708252,3.667917013168335,253.33704067560205
1561308791286,,,,257.94083406300075
1561308791320,-1.656787633895874,11.520898818969727,-5.1810526847839355,122.41315015420474
1561308791345,,,,123.72662285235486
1561308791383,2.806004285812378,,,
1561308791384,,12.583924293518066,6.4164605140686035,259.8664624655133
1561308791419,,,,258.06532792100256
1561308791456,-1.4939818382263184,10.180145263671875,1.1013327836990356,0.6475672470011204
1561308791494,,,,353.8905908747018
1561308791532,-1.6855180263519287,,,
1561308791533,,9.165003776550293,2.5665841102600098,324.4392006524081
1561308791560,,,,320.0375398833067
1561308791593,3.581725835800171,,,
1561308791594,,4.271255970001221,4.299986362457275,233.24922893035193
1561308791632,,,,230.17911353994452
1561308791666,4.022258758544922,10.917559623718262,-1.7621324062347412,179.47660761285826
1561308791704,,,,176.67392144921357
1561308791743,0.019153613597154617,,,282.40409231131775
1561308791744,,14.537592887878418,1.8483237028121948,
1561308791764,,,,280.6601332803492
1561308791804,-1.2066776752471924,10.381258964538574,-1.5897499322891235,81.23068164796376
1561308791840,,,,83.99567199757917
1561308791885,-1.359906554222107,8.542511940002441,2.2026655673980713,307.0169214571742
1561308791916,,,,315.084126187768
1561308791949,0.507570743560791,3.7158010005950928,2.3942017555236816,252.83840271524525
1561308791977,,,,255.37723867125237
1561308792020,-0.35434186458587646,11.204863548278809,-0.9385270476341248,101.14502707886311
1561308792063,,,,98.371451181461
1561308792090,0.8619126081466675,,,
1561308792092,,16.807296752929688,6.215347766876221,267.72749110582106
1561308792122,,,,267.65224974192415
1561308792156,-4.338293552398682,10.812214851379395,-1.37906014919281,61.97070932068675
1561308792184,,,,55.27153000914399
1561308792240,1.7046716213226318,,,
1561308792242,,5.20978307723999,1.4939818382263184,228.0623696142659
1561308792255,,,,225.10114109960688
1561308792303,0.6607996821403503,,,
1561308792304,,5.430049419403076,1.3982137441635132,248.37120628105765
1561308792352,,,,246.5815532845417
1561308792368,3.993528366088867,,1.7621324062347412,209.5352356037962
1561308792369,,9.519346237182617,,
1561308792407,,,,207.23840691046098
1561308792452,3.581725835800171,,,194.1848498970561
1561308792453,,,0.3926490843296051,
1561308792454,,10.448296546936035,,
1561308792468,,,,195.29608069388223
1561308792517,-0.1628057211637497,10.946290016174316,-0.2106897532939911,66.69401052799316
1561308792534,,,,70.85825392154487
1561308792578,-0.24899697303771973,,,
1561308792579,,7.862558364868164,3.7636849880218506,264.6461605447965
1561308792621,,,,273.68797179824855
1561308792652,-1.1013327836990356,,,
1561308792653,,3.955221176147461,0.12449848651885986,23.374606349339672
1561308792686,,,,27.93705660169229
1561308792738,-0.871489405632019,9.931148529052734,2.250549554824829,310.43803343883934
1561308792754,,,,310.5371975403042
1561308792816,3.179499864578247,12.449849128723145,7.642292022705078,251.36452985462654
1561308792863,-3.3901896476745605,,,
1561308792864,,10.678139686584473,-2.9879636764526367,86.84442095698643
1561308792908,,,,81.38787845171163
1561308792928,1.5897499322891235,,,
1561308792930,,5.688623428344727,0.9959878921508789,226.6794885337701
1561308792962,,,,224.66208287938014
1561308793007,0.8523358106613159,,,
1561308793008,,5.937620162963867,1.5514427423477173,251.14144904614477
1561308793027,,,,249.46049168008045
1561308793086,4.596867084503174,11.262324333190918,0.181959331035614,196.8589509193862
1561308793099,,,,194.5097210147386
1561308793144,1.5322890281677246,13.48414421081543,0.2106897532939911,201.3401697319398
1561308793208,0.4213795065879822,,,202.9061955048403
1561308793209,,10.065223693847656,1.8962076902389526,
1561308793237,,,,269.9273174525637
1561308793285,-1.37906014919281,,,
1561308793288,,,,273.9003428701118
1561308793289,,8.523358345031738,5.1810526847839355,
1561308793332,,,,283.4352596306929
1561308793349,-1.3886369466781616,,,
1561308793350,,3.1699230670928955,0.7374141216278076,359.3387942526085
1561308793375,,,,5.145686935769163
1561308793417,-1.886630892753601,14.192827224731445,1.800439715385437,345.3758631850655
1561308793458,,,,345.193852304063
1561308793484,0.28730419278144836,,,
1561308793485,,14.451401710510254,5.640739440917969,282.1353107070994
1561308793517,,,,279.3637497155024
1561308793557,-2.499546527862549,12.325350761413574,-0.3064578175544739,40.876496521991896
1561308793584,,,,37.1553138395206
1561308793627,2.738966703414917,,,
1561308793628,,5.7556610107421875,1.4939818382263184,223.13926488316906
1561308793662,,,,219.17054248479815
1561308793727,-1.6855180263519287,6.464344501495361,-1.8195933103561401,82.40859558165664
1561308793768,4.520252704620361,,,
1561308793769,,10.524910926818848,-0.24899697303771973,189.54574443164847
1561308793814,,,,186.14551233827603
1561308793842,0.019153613597154617,,0.507570743560791,276.7415854516212
1561308793843,,12.698845863342285,,
1561308793870,,,,275.71685217044416
1561308793909,1.5418659448623657,,-0.545877993106842,171.2130622643833
1561308793910,,9.394847869873047,,
1561308793934,,,,175.24434919555156
1561308793976,-0.5363011956214905,9.069235801696777,7.086836814880371,253.2471485559355
1561308794004,,,,259.53435817749977
1561308794046,-1.216254472732544,5.70777702331543,0.8427590131759644,341.5716458928543
1561308794078,,,,349.21074290400816
1561308794124,-0.6607996821403503,11.980585098266602,-0.9481038451194763,85.38364156900661
1561308794144,,,,86.34110431704818
1561308794185,0.3734954595565796,,,
1561308794186,,15.006855964660645,6.110002517700195,275.463383850345
1561308794219,,,,278.1715948373901
1561308794257,-1.742978811264038,13.187262535095215,-0.7757213711738586,59.879722038368186
1561308794289,,,,56.97313162197469
1561308794334,1.9153614044189453,6.157886981964111,-0.8044517636299133,183.94261240640685
1561308794354,,,,181.2194979465928
1561308794393,1.4173674583435059,,,
1561308794394,,3.974374771118164,0.7374141216278076,222.02288412370888
1561308794426,,,,217.3512396370952
1561308794464,3.936067581176758,11.013327598571777,3.8498764038085938,229.14459942787607
1561308794494,,,,227.78399842445288
1561308794538,-0.7374141216278076,16.931795120239258,-2.2026655673980713,95.18991491512315
1561308794571,,,,93.69523729829262
1561308794604,2.403778553009033,,-0.6033388376235962,180.73773738367504
1561308794605,,9.643844604492188,,
1561308794635,,,,184.66240506189945
1561308794676,-0.35434186458587646,5.793968200683594,2.853888511657715,267.985610784745
1561308794704,,,,274.36141479003345
1561308794758,-0.8236053586006165,,,
1561308794759,,3.821146011352539,2.183511972427368,280.6825226404485
1561308794776,,,,285.4829093627277
1561308794826,-0.49799394607543945,8.65743350982666,-2.2888567447662354,113.04577793396405
1561308794860,,,,112.6039329965559
1561308794925,0.31603461503982544,,,
1561308794927,,13.177685737609863,-4.999093055725098,129.099413578027
1561308794985,-0.545877993106842,10.754754066467285,1.7334020137786865,302.16089259882153
1561308795050,2.1930887699127197,5.410895824432373,5.200206279754639,238.80291038600268
1561308795062,,,,235.59545355176465
1561308795110,1.0247182846069336,4.079719543457031,-1.0630255937576294,151.92729914280028
1561308795127,,,,149.0746159944311
1561308795174,3.88818359375,,,
1561308795175,,,-3.380612850189209,154.2630325936479
1561308795194,,9.911994934082031,,
1561308795195,,,,152.51334303396573
1561308795244,1.4460978507995605,,-4.616020679473877,126.86243100219943
1561308795246,,11.338939666748047,,
1561308795267,,,,127.47600055572002
1561308795316,-1.5131354331970215,11.195286750793457,2.231395959854126,300.8880185450979
1561308795341,,,,302.763509944008
1561308795383,-0.727837324142456,,,
1561308795384,,4.414907932281494,-2.5282769203186035,105.30511771739941
1561308795405,,,,105.73241435187543
1561308795454,-1.9823989868164063,3.9839515686035156,0.9959878921508789,329.69996603040823
1561308795481,,,,335.79924128941224
1561308795528,0.7374141216278076,,,
1561308795529,,12.430695533752441,-3.9647979736328125,123.04749714318052
1561308795551,,,,124.1714730729978
1561308795595,-0.19153612852096558,13.397953033447266,-3.993528366088867,111.87030237780485
1561308795617,,,,109.45658182701402
1561308795678,-0.871489405632019,10.113107681274414,-1.50355863571167,77.76061770051717
1561308795686,,,,73.308707229692
1561308795738,1.5610195398330688,6.282385349273682,2.0398597717285156,227.32376661779904
1561308795764,,,,226.5176130504408
1561308795808,2.31758713722229,3.2848446369171143,-2.049436569213867,151.92699861447682
1561308795826,,,,152.82113867872317
1561308795888,-5.305551052093506,,,37.52694101716639
1561308795889,,19.19192123413086,-2.1739351749420166,
1561308795897,,,,41.74206248984552
1561308795944,5.372588634490967,8.513781547546387,0.12449848651885986,188.04527481440164
1561308795972,,,,194.241731712464
1561308796030,-1.8387469053268433,12.449849128723145,1.4844050407409668,334.2295272143599
1561308796037,,,,347.2414636162837
1561308796084,-0.6799532771110535,4.501099109649658,-0.545877993106842,76.61492176913919
1561308796105,,,,84.81543130176408
1561308796156,1.1204863786697388,1.5322890281677246,1.1683704853057861,239.52965617407034
1561308796201,,,,241.12289342062422
1561308796254,-3.6774938106536865,,,
1561308796255,,19.613300323486328,5.07570743560791,341.00471116343925
1561308796314,-0.49799394607543945,,,
1561308796315,,11.367670059204102,-3.00711727142334,124.70432345090717
1561308796374,1.1300631761550903,,,
1561308796375,,9.567230224609375,3.6296098232269287,273.47744487746127
1561308796386,,,,272.816883622451
1561308796442,-1.4748282432556152,6.89530086517334,0.2298433631658554,30.639921258164577
1561308796487,,,,28.16931718441856
1561308796503,2.38462495803833,,,
1561308796504,,10.72602367401123,4.07014274597168,258.9400975687628
1561308796543,,,,256.0948115152647
1561308796585,0.7469909191131592,17.62132453918457,1.4460978507995605,270.17799905548156
1561308796595,,,,270.5770118766045
1561308796645,2.9017724990844727,11.60708999633789,0.26815059781074524,212.4178076599734
1561308796683,,,,212.93740747089294
1561308796733,0.5841852426528931,8.609549522399902,1.8483237028121948,274.917091660149
1561308796746,,,,278.8964418328685
1561308796810,-2.279279947280884,,,
1561308796811,,5.525817394256592,-0.49799394607543945,69.41444072346337
1561308796861,-0.40222588181495667,,,
1561308796862,,9.165003776550293,-0.13407529890537262,60.53326868910085
1561308796887,,,,62.84353236453347
1561308796933,-0.7374141216278076,14.470555305480957,7.307103633880615,295.4308818133653
1561308796945,,,,291.62013486030764
1561308796998,-0.7086837291717529,15.600618362426758,-2.3367409706115723,118.70785449174286
1561308797015,,,,115.19424125814822
1561308797080,1.1300631761550903,,,
1561308797081,,,,253.39716000067648
1561308797082,,10.093954086303711,1.1204863786697388,
1561308797122,,,,251.98023042716818
1561308797134,-0.5937620401382446,4.912901878356934,0.6033388376235962,346.07941791958007
1561308797161,,,,343.8600751610577
1561308797211,0.871489405632019,10.486603736877441,4.165910720825195,271.4721901296047
1561308797225,,,,269.18792215415317
1561308797282,1.742978811264038,17.1807918548584,1.2449848651885986,241.3907324587371
1561308797296,,,,240.90072102730204
1561308797353,3.9456443786621094,9.749189376831055,-1.0247182846069336,192.83344232825573
1561308797379,,,,195.08710422603644
1561308797415,-1.2832920551300049,10.927136421203613,3.514688014984131,306.54931987640595
1561308797452,,,,311.2220401178139
1561308797489,0.35434186458587646,2.75812029838562,1.216254472732544,264.8836393920487
1561308797513,,,,272.2253755799495
1561308797564,-1.8195933103561401,,,
1561308797565,,10.812214851379395,1.9919757843017578,350.6141751699429
1561308797577,,,,348.40602538392284
1561308797636,-1.436521053314209,,,
1561308797637,,17.87032127380371,2.0015525817871094,342.14122902812
1561308797666,,,,338.3543074824346
1561308797718,2.75812029838562,11.377246856689453,-1.359906554222107,187.61333365129008
1561308797789,-0.08619125932455063,10.620678901672363,2.097320795059204,295.1890726261794
1561308797852,0.181959331035614,3.9456443786621094,-0.2968810200691223,150.90869937149793
1561308797868,,,,150.20342769818077
1561308797911,3.227383852005005,7.508216381072998,1.6184803247451782,223.39993222265343
1561308797933,,,,222.84414606951123
1561308798008,3.227383852005005,17.659631729125977,2.9017724990844727,240.522314886905
1561308798054,5.3342814445495605,10.228029251098633,-2.145204782485962,184.32884594359268
1561308798065,,,,187.92203088101792
1561308798124,-0.7757213711738586,7.862558364868164,0.7469909191131592,346.5266518762433
1561308798136,,,,350.6216149534963
1561308798205,0.2585737705230713,2.126051187515259,0.8523358106613159,270.76992373952237
1561308798255,-0.43095630407333374,,,
1561308798256,,,1.139639973640442,326.10804467797936
1561308798298,,,,326.40993562419936
1561308798352,-2.5282769203186035,19.546262741088867,2.557007312774658,352.6516530427562
1561308798408,2.2697031497955322,,,
1561308798409,,11.061211585998535,-2.2697031497955322,171.40943020302117
1561308798418,,,,169.21064204503233
1561308798474,-0.3256114423274994,10.41956615447998,0.6703764796257019,326.9283538123925
1561308798499,,,,323.75880794314264
1561308798540,0.9193734526634216,1.0342950820922852,-0.28730419278144836,190.32386690265298
1561308798554,,,,188.32745724977156
1561308798609,1.3694833517074585,,,
1561308798611,,7.642292022705078,0.9385270476341248,235.36360961057778
1561308798653,,,,232.64335016983676
1561308798682,0.2585737705230713,18.60773468017578,3.026270866394043,283.0662518305938
1561308798726,,,,282.46803654232735
1561308798744,2.3367409706115723,,,
1561308798745,,10.218452453613281,2.652775526046753,241.01806367724288
1561308798790,,,,245.0198305308183
1561308798832,0.6320692300796509,6.1770405769348145,3.6774938106536865,261.780568338896
1561308798841,,,,267.5441619983087
1561308798904,-1.7812861204147339,,,34.04256099321941
1561308798905,,5.899312973022461,0.23942017555236816,
1561308798974,0.35434186458587646,,,
1561308798975,,7.805097579956055,2.3080103397369385,284.7701654624585
1561308799041,-1.3215993642807007,19.278112411499023,4.079719543457031,317.4711202083365
1561308799054,,,,315.6581865120346
1561308799109,-2.0207061767578125,12.938265800476074,1.4269442558288574,358.7886082142554
1561308799121,,,,353.59348917175043
1561308799175,0.43095630407333374,8.571242332458496,-1.0055646896362305,145.45763467793748
1561308799189,,,,143.84034150512684
1561308799242,0.7182605266571045,,,
1561308799243,,3.026270866394043,0.6416460275650024,240.81157339825506
1561308799256,,,,241.72862191697766
1561308799311,0.9193734526634216,9.53849983215332,2.911349296569824,269.70666819142644
1561308799352,,,,267.0510223402338
1561308799376,2.0877439975738525,15.514427185058594,-0.40222588181495667,194.98858557744825
1561308799426,,,,192.11778876740016
1561308799444,2.3080103397369385,12.373234748840332,3.112462282180786,245.8999140657528
1561308799472,,,,248.8791537892531
1561308799514,0.12449848651885986,5.5545477867126465,1.292868971824646,281.8988973693577
1561308799534,,,,290.6160150900457
1561308799601,-2.346317768096924,7.1921820640563965,2.82515811920166,334.99250544842727
1561308799609,,,,345.5598787265894
1561308799653,-0.6129156351089478,,,
1561308799655,,9.260771751403809,1.235408067703247,335.9892212936289
1561308799693,,,,341.85369855463
1561308799737,-0.6512228846549988,,,
1561308799738,,14.805743217468262,4.845864295959473,313.9073938768015
1561308799747,,,,312.1142301630522
1561308799799,-1.2832920551300049,,,
1561308799800,,13.85763931274414,1.2449848651885986,2.1218260133079525
1561308799815,,,,357.50171935940693
1561308799877,2.786850690841675,,,
1561308799878,,6.5696892738342285,1.6376339197158813,237.9808971193916
1561308799920,,,,237.48003934755457
1561308799934,0.7948749661445618,3.8307228088378906,-0.8810662031173706,172.98520948605648
1561308799980,,,,170.07487954109237
1561308800033,1.072602391242981,9.165003776550293,2.557007312774658,272.2422871283345
1561308800075,-2.0015525817871094,18.981231689453125,1.8483237028121948,349.8645277575881
1561308800094,,,,351.0991689736589
1561308800158,3.4572272300720215,8.628703117370605,1.7908629179000854,230.45293582377036
1561308800181,,,,233.60430314454425
1561308800236,-0.9864110946655273,7.422025203704834,2.2601263523101807,322.95528399861485
1561308800284,-0.7469909191131592,,3.2752678394317627,301.4363802826124
1561308800285,,5.688623428344727,,
1561308800304,,,,308.3402671937696
1561308800370,0.45010992884635925,5.305551052093506,-1.4460978507995605,155.6452716363617
1561308800378,,,,156.57510626921055
1561308800429,-1.8100165128707886,19.613300323486328,11.166556358337402,308.42928504922236
1561308800457,,,,306.22085949431465
1561308800508,-1.3024457693099976,14.288596153259277,0.3447650372982025,33.1777463461745
1561308800520,,,,30.931286882873565
1561308800573,-0.2968810200691223,9.758766174316406,-0.363918662071228,96.41523719184511
1561308800585,,,,95.18283200895388
1561308800674,0.9672574996948242,4.76924991607666,1.580173134803772,269.1040269405779
1561308800704,4.108449935913086,8.02536392211914,2.1930887699127197,235.04291856866735
1561308800743,,,,234.87373478292614
1561308800789,-0.689530074596405,19.000385284423828,3.821146011352539,312.43053963861007
1561308800797,,,,311.5730606147337
1561308800845,2.2218191623687744,,0.8810662031173706,233.0945114852728
1561308800846,,10.199298858642578,,
1561308800892,,,,235.45421890010715
1561308800915,-0.24899697303771973,7.316680431365967,3.1699230670928955,298.2627260545768
1561308800939,,,,302.63789935007685
1561308801011,-2.250549554824829,6.8378400802612305,2.3080103397369385,355.07775843405955
1561308801062,-0.9193734526634216,10.400412559509277,3.514688014984131,321.5672017290661
1561308801096,,,,320.99926466939036
1561308801124,-1.1971008777618408,,,
1561308801125,,18.1097412109375,7.307103633880615,312.70484686586695
1561308801163,,,,310.6014525449211
1561308801230,-0.8427590131759644,,,
1561308801231,,12.325350761413574,-2.671929121017456,121.08805247408725
1561308801270,1.3407529592514038,7.383718013763428,0.6512228846549988,239.8582019335263
1561308801321,,,,236.60614396400814
1561308801339,1.6759412288665771,,,
1561308801342,,3.3901896476745605,1.2449848651885986,239.82637325199403
1561308801388,,,,237.71192426987653
1561308801404,0.6224924325942993,11.109095573425293,4.32871675491333,281.2634848708714
1561308801461,,,,278.61775645435364
1561308801476,2.6144683361053467,,,
1561308801477,,13.771448135375977,0.3064578175544739,213.83269500691983
1561308801528,,,,213.3109368562226
1561308801561,4.108449935913086,11.27190113067627,1.0821791887283325,218.1628300350328
1561308801617,-1.4173674583435059,,,
1561308801619,,9.931148529052734,2.2888567447662354,220.630959872752
1561308801636,,,,331.9145455857581
1561308801692,-0.7182605266571045,,0.871489405632019,341.0719151022303
1561308801693,,3.9169139862060547,,
1561308801705,,,,344.3964704071463
1561308801761,-0.4596867263317108,8.370129585266113,3.8977603912353516,298.89693643976915
1561308801819,,,,304.58020024435336
1561308801834,,,,327.0547669535511
1561308801835,-2.3271639347076416,18.914194107055664,5.717353820800781,
1561308801845,,,,325.3684991154071
1561308801912,0.40222588181495667,11.66455078125,-2.4803929328918457,141.81670671821382
1561308801924,,,,139.39573250652444
1561308801975,2.786850690841675,5.621585369110107,-0.2968810200691223,207.71952543559667
1561308801985,,,,205.30441152621518
1561308802043,-0.8140285611152649,5.056553840637207,0.05746084079146385,32.85947319123022
1561308802081,,,,29.55485350095421
1561308802107,2.1930887699127197,7.556100368499756,3.869029998779297,258.2621125011798
1561308802153,,,,257.91349964594235
1561308802190,3.8498764038085938,,,
1561308802191,,14.882357597351074,0.12449848651885986,210.36589588989648
1561308802231,,,,210.72658451958648
1561308802294,1.9153614044189453,11.875240325927734,1.7334020137786865,248.40224266064615
1561308802314,-1.0821791887283325,8.073247909545898,5.123591423034668,291.431771903377
1561308802374,,,,303.2018612396556
1561308802392,-1.0630255937576294,,,
1561308802393,,3.8594532012939453,-0.08619125932455063,52.569049550812565
1561308802466,-2.2026655673980713,7.374141216278076,1.6184803247451782,54.11683871862914
1561308802481,,,,10.682998989300359
1561308802551,-3.5434184074401855,18.310853958129883,5.612008571624756,344.3873179536585
1561308802598,0.047884032130241394,,,
1561308802599,,13.79060173034668,0.5554547905921936,305.47386561045244
1561308802616,,,,301.5417359505598
1561308802664,1.5705963373184204,7.01979923248291,0.5554547905921936,233.138429601636
1561308802690,,,,229.82212687278468
1561308802733,-1.944091796875,,,
1561308802734,,5.918466567993164,-0.26815059781074524,48.37719511754108
1561308802781,,,,46.56296027020227
1561308802804,2.4229321479797363,8.130708694458008,5.410895824432373,263.1783460619716
1561308802857,,,,261.18774206988473
1561308802883,3.2178070545196533,,,197.48933639864333
1561308802884,,14.250288963317871,-0.727837324142456,
1561308802936,,,,196.93891877418866
1561308802950,3.294421434402466,9.011775016784668,1.3503297567367554,227.10693543240785
1561308802976,,,,227.55352052109993
1561308803018,-1.4077905416488647,,,314.75812467377784
1561308803019,,9.27034854888916,3.313575267791748,
1561308803034,,,,317.3019091018386
1561308803123,-1.3024457693099976,3.380612850189209,1.1109095811843872,351.3730510216399
1561308803162,-1.9345149993896484,,,
1561308803163,,8.274360656738281,2.097320795059204,350.51483775242787
1561308803202,,,,354.06409731641395
1561308803248,-1.800439715385437,17.094600677490234,2.5282769203186035,346.7749036393639
1561308803301,0.26815059781074524,11.894393920898438,-0.6703764796257019,151.07412655319564
1561308803333,,,,147.7124850286338
1561308803381,1.2449848651885986,,,
1561308803382,,5.583278179168701,-0.08619125932455063,208.40348691870344
1561308803393,,,,207.09603844740127
1561308803435,-1.4173674583435059,,,49.50771436858321
1561308803436,,6.45476770401001,-0.24899697303771973,
1561308803454,,,,46.303197930782915
1561308803519,2.940079689025879,,,
1561308803520,,,,243.83983338942858
1561308803521,,5.39174222946167,3.1890766620635986,
1561308803527,,,,241.27864905445722
1561308803582,0.10534487664699554,18.023550033569336,2.9975404739379883,291.8782272184749
1561308803613,,,,290.348585863283
1561308803663,4.108449935913086,10.802638053894043,0.2968810200691223,207.87437948445927
1561308803664,,,,211.1297432655357
1561308803716,-1.8195933103561401,,2.4133553504943848,333.9363481744263
1561308803717,,10.582371711730957,,
1561308803734,,,,337.6361967610251
1561308803795,0.4596867263317108,,,
1561308803796,,2.3271639347076416,0.7661445140838623,260.95830918547483
1561308803804,,,,266.71119993845815
1561308803853,-1.0247182846069336,,,
1561308803854,,6.540958881378174,3.1028854846954346,313.8367628905944
1561308803881,,,,319.0945742117785
1561308803925,-2.432508945465088,,,
1561308803926,,,7.182605266571045,322.7295052654109
1561308803927,,19.38345718383789,,
1561308803978,,,,321.2905790676806
1561308804041,-0.3447650372982025,,,
1561308804043,,12.689269065856934,-2.63362193107605,127.13013343652892
1561308804064,0.15322890877723694,8.33182144165039,0.7182605266571045,297.5521951355987
1561308804084,,,,294.92294796554813
1561308804167,-0.038307227194309235,4.683058738708496,-0.12449848651885986,112.74989413911908
1561308804224,1.8387469053268433,9.14585018157959,4.491522312164307,270.14579471354494
1561308804307,3.265691041946411,,,
1561308804309,,15.006855964660645,0.35434186458587646,216.62068260347064
1561308804349,4.788403511047363,,,
1561308804350,,10.955866813659668,0.6607996821403503,216.87109099882167
1561308804366,,,,223.84064334865934
1561308804418,-1.580173134803772,10.860098838806152,2.499546527862549,340.57297832109737
1561308804447,,,,346.0296403546826
1561308804484,-1.1492167711257935,3.9456443786621094,1.7046716213226318,345.55284704683885
1561308804504,,,,351.92144434877935
1561308804553,-2.537853717803955,,,
1561308804554,,10.065223693847656,3.3231520652770996,356.5919328258759
1561308804602,,,,357.2898127404073
1561308804641,-1.359906554222107,15.744270324707031,2.4420857429504395,348.87494604497454
1561308804650,,,,346.5729878795727
1561308804704,0.7948749661445618,10.898406028747559,0.9481038451194763,276.8133502492305
1561308804717,,,,271.66640655865405
1561308804775,-0.6799532771110535,12.746729850769043,3.1507694721221924,322.418315016636
1561308804785,,,,316.2957846710553
1561308804851,0.5746083855628967,,,
1561308804852,,3.7253777980804443,-0.3734954595565796,184.35805183248362
1561308804864,,,,181.33670399275024
1561308804914,1.3982137441635132,5.39174222946167,1.9632453918457031,263.8769651310372
1561308804938,,,,260.75894279379133
1561308804994,4.414907932281494,9.730035781860352,2.3942017555236816,237.25725223720713
1561308805006,,,,237.10135999959073
1561308805047,-1.6089035272598267,,,
1561308805048,,18.981231689453125,3.667917013168335,322.4772493038894
1561308805064,,,,323.19927201614604
1561308805130,1.1875240802764893,,,
1561308805131,,11.760318756103516,3.4763808250427246,278.12811385313375
1561308805139,,,,282.6879276524668
1561308805203,0.038307227194309235,,2.6240451335906982,289.742310951796
1561308805204,,3.1316158771514893,,
1561308805252,,,,294.1744138740281
1561308805254,-1.292868971824646,5.726930618286133,1.723825216293335,344.317875420367
1561308805310,,,,347.59837600513634
1561308805326,0.7661445140838623,,,
1561308805327,,8.26478385925293,1.1683704853057861,277.3018658692373
1561308805377,,,,277.2005195223327
1561308805442,-1.9919757843017578,17.1807918548584,6.186617374420166,326.31657376843447
1561308805467,-2.126051187515259,15.447389602661133,0.7757213711738586,18.029602540758447
1561308805509,,,,12.60451561793252
1561308805534,1.3311761617660522,,-0.28730419278144836,199.28287577279696
1561308805567,,,,193.4204970874183
1561308805609,2.557007312774658,1.37906014919281,0.9672574996948242,233.37538252432205
1561308805628,,,,229.57382217569807
1561308805674,2.719813108444214,,,
1561308805675,,8.044517517089844,3.045424461364746,245.82922843803232
1561308805721,,,,241.26068565694004
1561308805744,-0.1149216815829277,18.253393173217773,2.7964274883270264,287.71881959885553
1561308805787,,,,286.95711007242653
1561308805839,-1.292868971824646,,,
1561308805840,,16.491260528564453,4.424484729766846,298.2160826927348
1561308805888,-0.5841852426528931,,,302.87318570660545
1561308805889,,6.4834980964660645,1.800439715385437,
1561308805904,,,,308.11516806438806
1561308805953,-1.139639973640442,,,
1561308805954,,1.580173134803772,0.13407529890537262,26.019834454500767
1561308806002,,,,28.36379828329825
1561308806058,0.019153613597154617,,,287.0174206427978
1561308806059,,4.491522312164307,2.82515811920166,289.3735353781287
1561308806115,-3.552995204925537,,,
1561308806116,,19.613300323486328,7.115567684173584,321.1679157003763
1561308806167,-2.0685901641845703,13.73314094543457,-0.14365209639072418,31.633986989968207
1561308806184,,,,30.17973726283492
1561308806266,1.7621324062347412,,,224.37144466981772
1561308806267,,6.789956092834473,0.6416460275650024,219.54032892646262
1561308806319,0.9768342971801758,,,192.36595686070336
1561308806320,,3.6966474056243896,-0.13407529890537262,
1561308806369,,,,191.20135496570288
1561308806378,0.9385270476341248,5.631162166595459,1.742978811264038,257.78436125930494
1561308806421,,,,256.1562285762815
1561308806445,-0.9385270476341248,19.25895881652832,2.0685901641845703,311.3606178258842
1561308806495,,,,313.74260873288574
1561308806550,6.6846113204956055,11.109095573425293,2.8826189041137695,222.30278527589599
1561308806620,-3.07415509223938,,3.4955344200134277,333.33570475390997
1561308806621,,15.820884704589844,,
1561308806686,-0.8906430602073669,,,101.09569262248806
1561308806687,,1.8962076902389526,-1.455674648284912,104.48863007382693
1561308806771,-2.078166961669922,4.663905143737793,2.365471363067627,339.28701079473484
1561308806795,-4.807557106018066,,,
1561308806796,,17.99481964111328,5.937620162963867,341.2565692664416
1561308806845,,,,338.64493032407137
1561308806909,-2.0207061767578125,,,
1561308806910,,15.351621627807617,0.507570743560791,21.29425196401155
1561308806937,-0.2585737705230713,12.60307788848877,2.432508945465088,300.4719165906716
1561308806984,,,,295.98973472144496
1561308807005,1.7142484188079834,3.4955344200134277,-2.1068975925445557,155.71626462259482
1561308807063,,,,150.39102567392433
1561308807076,2.0685901641845703,,0.5746083855628967,210.85189117009952
1561308807077,,1.742978811264038,,
1561308807095,,,,206.13101467994852
1561308807155,2.9688100814819336,12.516886711120605,1.158793568611145,211.50999355700867
1561308807168,,,,207.52819817656632
1561308807217,1.9919757843017578,13.924676895141602,-0.507570743560791,175.65130552667927
1561308807260,,,,173.42611185735913
1561308807283,-0.7948749661445618,,,284.63351386773405
1561308807284,,14.336480140686035,2.9305028915405273,
1561308807304,,,,283.2179639924381
1561308807354,-1.1971008777618408,4.127603530883789,2.9305028915405273,268.6135237355226
1561308807395,,,,267.0068583370605
1561308807464,-0.9576807022094727,,3.552995204925537,265.87278055746077
1561308807465,,5.765237808227539,,
1561308807494,-1.2066776752471924,18.741811752319336,6.0621185302734375,274.12627186747744
1561308807541,,,,271.2166249414304
1561308807594,0.28730419278144836,14.030021667480469,-1.292868971824646,110.3577433257272
1561308807662,1.37906014919281,,,133.6870603982278
1561308807663,,6.703764915466309,-1.9057846069335938,130.23894867877357
1561308807721,0.5650315880775452,4.778826713562012,-0.3064578175544739,150.57770840431914
1561308807732,,,,151.5167364717908
1561308807799,2.978386878967285,7.297526836395264,2.5953147411346436,213.85576738593613
1561308807878,4.4723687171936035,13.991714477539063,1.4077905416488647,191.36257475087177
1561308807941,4.7405195236206055,11.1474027633667,1.2449848651885986,188.01242160449397
1561308808010,-2.9688100814819336,,0.6416460275650024,339.8443098347783
1561308808011,,9.299078941345215,,
1561308808077,-1.522712230682373,,,293.50502801461016
1561308808078,,1.5322890281677246,0.8906430602073669,308.3794622343217
1561308808157,-2.0685901641845703,7.479485988616943,3.5913026332855225,294.8788590944557
1561308808223,1.1971008777618408,,,
1561308808224,,,,151.18204354208186
1561308808225,,10.256759643554688,-1.37906014919281,
1561308808289,2.7102363109588623,12.267889976501465,0.19153612852096558,204.88955949640695
1561308808357,0.019153613597154617,,,
1561308808358,,10.745177268981934,0.5841852426528931,288.54190520516624
1561308808450,1.7717092037200928,,,
1561308808451,,3.907337188720703,0.9002198576927185,223.98418660425637
1561308808533,1.867477297782898,4.4532151222229,0.9576807022094727,222.6623537545621
1561308808556,4.616020679473877,,,216.60102531903937
1561308808557,,11.434707641601563,1.5131354331970215,
1561308808564,,,,218.16746090329013
1561308808644,3.5051112174987793,,,
1561308808645,,12.54561710357666,1.158793568611145,218.7514830584612
1561308808700,-2.1547815799713135,10.429142951965332,2.279279947280884,337.25146245036206
1561308808712,,,,346.3791650401743
1561308808772,-1.7621324062347412,,,
1561308808774,,2.853888511657715,1.1492167711257935,3.679270080403171
1561308808783,,,,17.062475075041334
1561308808841,-1.944091796875,5.602431774139404,2.451662540435791,346.8269462657448
1561308808852,,,,353.9240566672007
1561308808910,-0.028730420395731926,,,
1561308808911,,10.888829231262207,0.6033388376235962,319.3027754531534
1561308808915,,,,320.59308697982806
1561308808982,2.0207061767578125,,,219.3553264226037
1561308808983,,11.185709953308105,-0.2585737705230713,
1561308809003,,,,219.16651267318787
1561308809058,-1.1013327836990356,10.409989356994629,0.363918662071228,31.999043525632487
1561308809132,0.10534487664699554,,,146.1044535923377
1561308809133,,4.5394062995910645,-0.7661445140838623,144.8987749396687
1561308809184,2.5761611461639404,,,
1561308809185,,1.216254472732544,1.3694833517074585,240.5093921689953
1561308809214,,,,241.58557043500088
1561308809264,-3.648763418197632,,,
1561308809265,,19.613300323486328,3.1220390796661377,4.548830428260771
1561308809344,6.426037311553955,12.172121047973633,1.522712230682373,233.2419479486967
1561308809424,0.5650315880775452,,,
1561308809425,,12.392388343811035,3.6966474056243896,304.9703440648391
1561308809492,-1.5418659448623657,2.3271639347076416,0.13407529890537262,70.61292718693636
1561308809567,-0.8044517636299133,4.01268196105957,1.4269442558288574,6.238444632211269
1561308809608,1.0342950820922852,15.830461502075195,4.501099109649658,318.7319048272292
1561308809653,,,,320.44317115773543
1561308809730,0.40222588181495667,,,168.2316300501594
1561308809731,,11.243170738220215,-3.179499864578247,169.11678158545803
1561308809744,-1.158793568611145,,,
1561308809745,,,,93.2066943575291
1561308809746,,10.304644584655762,-0.38307225704193115,
1561308809758,,,,94.91149591398596
1561308809820,-0.17238251864910126,5.4013190269470215,0.7469909191131592,353.69005908199114
1561308809845,,,,352.2109291101456
1561308809902,2.8347349166870117,4.529829502105713,2.5665841102600098,257.86049737798305
1561308809966,3.7158010005950928,14.824896812438965,-0.8906430602073669,226.49059282208424
1561308810054,3.773261785507202,,,273.6308850771656
1561308810055,,14.250288963317871,3.1028854846954346,278.2613298627057
1561308810113,-0.4213795065879822,,,21.217513081139145
1561308810114,,12.401965141296387,0.6512228846549988,
1561308810213,-1.4173674583435059,5.123591423034668,0.9768342971801758,67.31988125220892
1561308810237,-0.8427590131759644,,,25.247828417898006
1561308810238,,6.636727333068848,4.261679172515869,
1561308810245,,,,24.551309632002187
1561308810304,0.5363011956214905,10.218452453613281,1.7142484188079834,343.9036500604151
1561308810316,,,,342.4613360888564
1561308810374,0.4213795065879822,15.361198425292969,6.3302693367004395,356.88326622062976
1561308810385,,,,354.6302205339782
1561308810450,-0.8523358106613159,11.645397186279297,-1.2832920551300049,148.2311149526912
1561308810457,,,,148.36416703772306
1561308810525,-0.4405331015586853,,,
1561308810526,,8.26478385925293,-0.8523358106613159,154.02189959518975
1561308810611,1.7525556087493896,5.420472621917725,2.63362193107605,299.16349823250727
1561308810685,4.807557106018066,8.810662269592285,3.0837318897247314,270.0884416150843
1561308810759,-1.015141487121582,18.17677879333496,0.8906430602073669,39.58476773106452
1561308810794,4.788403511047363,10.20887565612793,0.2298433631658554,247.48240742474223
1561308810804,,,,252.70071976195618
1561308810902,2.078166961669922,,,237.43702281616186
1561308810903,,1.37906014919281,-0.08619125932455063,
1561308810964,-2.403778553009033,6.378153324127197,1.5514427423477173,74.77952699575172
1561308811012,-0.8427590131759644,,,
1561308811013,,6.445190906524658,1.6089035272598267,37.23290137339734
1561308811043,,,,39.66693490677977
1561308811109,-0.9289502501487732,19.613300323486328,9.385271072387695,16.844170276336683
1561308811176,-1.7908629179000854,,-3.955221176147461,166.36700206712425
1561308811177,,14.824896812438965,,
1561308811241,0.7374141216278076,,-0.7086837291717529,232.12454266086093
1561308811242,,5.497087001800537,,
1561308811311,1.8195933103561401,2.6623523235321045,1.8962076902389526,291.4921576058291
1561308811386,2.365471363067627,,,
1561308811387,,8.65743350982666,3.706224203109741,319.8780071548627
1561308811442,-1.1204863786697388,19.574993133544922,1.3407529592514038,40.013054742970155
1561308811502,0.7374141216278076,11.549629211425781,1.1013327836990356,330.08693722802445
1561308811514,,,,339.8773491673409
1561308811564,0.12449848651885986,4.146757125854492,2.3080103397369385,19.146195036082986
1561308811597,,,,27.599554756687155
1561308811675,-1.2545616626739502,,,
1561308811676,,5.315127849578857,1.015141487121582,80.9697001197776
1561308811704,-2.183511972427368,11.252747535705566,3.667917013168335,62.764493415458105
1561308811750,,,,61.309615310921174
1561308811801,0.7182605266571045,16.242263793945313,2.8443117141723633,8.72192190499544
1561308811847,-3.3518824577331543,,0.8044517636299133,105.81075662165546
1561308811848,,15.093047142028809,,
1561308811854,,,,104.79553779399228
1561308811984,1.2832920551300049,5.7556610107421875,0.38307225704193115,305.6439987924883
1561308811995,,,,198.6359339149917
1561308812081,2.4899697303771973,6.090848922729492,2.0877439975738525,309.18994955670837
1561308812146,1.072602391242981,18.138471603393555,1.2737152576446533,328.29429602374665
1561308812229,3.667917013168335,10.170568466186523,0.8619126081466675,286.49721294504207
1561308812280,-2.4133553504943848,,,
1561308812281,,8.40843677520752,0.2298433631658554,107.39774424511876
1561308812365,-1.292868971824646,,,
1561308812366,,,,60.571428955993724
1561308812367,,7.709329605102539,2.1739351749420166,62.977185506212265
1561308812434,-1.3886369466781616,,,
1561308812437,,5.947196960449219,1.9153614044189453,70.0514924673505
1561308812474,-2.499546527862549,19.38345718383789,5.190629482269287,57.5796490051772
1561308812486,,,,59.72480651780313
1561308812550,0.2585737705230713,15.667655944824219,-0.019153613597154617,294.1389310412899
1561308812561,,,,291.6910936955949
1561308812662,2.7485435009002686,8.71489429473877,1.599326729774475,319.3522840793523
1561308812683,-1.1109095811843872,,,
1561308812684,,5.1810526847839355,-0.33518823981285095,135.1437348425164
1561308812696,,,,135.15974480593093
1561308812781,2.126051187515259,,,
1561308812782,,1.2066776752471924,-1.3694833517074585,242.9433437401077
1561308812858,-3.3039982318878174,,,146.66023974547997
1561308812859,,19.306842803955078,-1.6663644313812256,151.17667501339423
1561308812942,5.056553840637207,8.542511940002441,-0.19153612852096558,278.1297394381562
1561308812993,-1.7717092037200928,13.062764167785645,1.1492167711257935,99.17967429613776
1561308813051,-1.4269442558288574,5.621585369110107,-0.5650315880775452,155.23526904086418
1561308813112,-0.28730419278144836,,,
1561308813113,,9.624691009521484,5.008669853210449,58.464725408395
1561308813120,,,,55.712712418202614
1561308813188,0.22026655077934265,,,237.53405248351106
1561308813189,,14.508862495422363,-0.6512228846549988,235.4000008584756
1561308813282,0.8906430602073669,,,
1561308813283,,13.867216110229492,1.359906554222107,4.783563539466627
1561308813364,-0.9959878921508789,,,
1561308813365,,11.367670059204102,0.8619126081466675,89.64272896937314
1561308813384,0.47884035110473633,3.3518824577331543,-2.183511972427368,220.67062961145143
1561308813403,,,,217.11376762003226
1561308813476,2.4899697303771973,,2.126051187515259,331.9880264683964
1561308813477,,6.301538944244385,,
1561308813525,4.6255974769592285,11.97100830078125,-0.6320692300796509,279.11511033914644
1561308813534,,,,278.82609771460653
1561308813630,0.9385270476341248,,,
1561308813631,,15.016432762145996,-0.545877993106842,268.38763571929195
1561308813663,1.0055646896362305,,,
1561308813664,,10.821791648864746,3.00711727142334,26.04739256025448
1561308813730,,,,24.699089312431852
1561308813736,-1.8291701078414917,5.066130638122559,0.9672574996948242,112.27235463310848
1561308813746,,,,107.82494525694636
1561308813806,-0.8427590131759644,6.196194171905518,2.470816135406494,67.51785428530172
1561308813818,,,,66.3302073320416
1561308813875,0.13407529890537262,,,220.9948586913519
1561308813876,,11.405977249145508,-1.4939818382263184,
1561308813884,,,,221.37657064330722
1561308813958,1.0534487962722778,12.938265800476074,5.458779811859131,33.43834879886174
1561308814028,-1.7046716213226318,14.97812557220459,2.9879636764526367,69.60621194478983
1561308814087,-0.49799394607543945,5.899312973022461,-0.2585737705230713,148.24739812367253
1561308814159,,,,144.44974464325372
1561308814160,1.9249382019042969,7.326257228851318,2.451662540435791,345.3762678737738
1561308814172,,,,342.05726039001115
1561308814243,3.141192674636841,,,
1561308814244,,12.105083465576172,1.7717092037200928,318.63536010331103
1561308814303,1.2258312702178955,,0.33518823981285095,308.93088048148974
1561308814304,,13.637372970581055,,
1561308814305,,,,309.3552435497172
1561308814368,-1.3886369466781616,,,75.39287115302966
1561308814369,,10.72602367401123,1.3886369466781616,
1561308814391,,,,81.57816069179898
1561308814452,-2.0207061767578125,3.5913026332855225,-0.545877993106842,141.2854819253269
1561308814528,-0.7948749661445618,,,66.74036019170086
1561308814529,,6.703764915466309,3.9456443786621094,66.65078909092529
1561308814606,0.5650315880775452,8.130708694458008,-1.2066776752471924,243.88825943064398
1561308814699,0.4213795065879822,,,46.66949073068696
1561308814700,,14.451401710510254,5.784391403198242,
1561308814766,0.13407529890537262,11.903970718383789,2.4133553504943848,46.37663612473892
1561308814786,0.13407529890537262,6.761225700378418,-0.8810662031173706,233.1021203160082
1561308814795,,,,229.08322334799436
1561308814854,1.8770540952682495,,1.4844050407409668,346.69075400124206
1561308814855,,4.434061527252197,,
1561308814892,,,,342.0023166407803
1561308814959,3.620033025741577,10.572794914245605,2.1547815799713135,334.51346500834654
1561308815020,-0.3064578175544739,,1.37906014919281,52.445293353241084
1561308815021,,18.732234954833984,,
1561308815089,0.3064578175544739,9.35654067993164,1.3407529592514038,33.94052479720858
1561308815174,-1.3024457693099976,,,
1561308815175,,4.520252704620361,1.1875240802764893,110.14688855585973
1561308815271,-1.158793568611145,,4.683058738708496,85.7410243871384
1561308815272,,7.422025203704834,,
1561308815297,0.6224924325942993,7.46033239364624,2.3750481605529785,45.201911889388384
1561308815376,2.0590133666992188,11.942277908325195,3.07415509223938,24.861077493882476
1561308815415,-1.1013327836990356,,,
1561308815416,,14.010868072509766,1.0438719987869263,107.3905793766794
1561308815428,,,,105.2463575999698
1561308815484,0.8236053586006165,,,288.6667132518699
1561308815485,,7.920019149780273,-0.5937620401382446,
1561308815507,,,,287.3290890048146
1561308815580,-0.9385270476341248,,,97.06275278554068
1561308815581,,5.746084213256836,1.2449848651885986,99.01889847326481
1561308815664,1.9536685943603516,7.891288757324219,3.00711727142334,30.617945124510015
1561308815720,-0.6129156351089478,17.650054931640625,2.1356279850006104,77.19569958445459
1561308815808,1.7812861204147339,,,
1561308815809,,9.758766174316406,0.545877993106842,349.76847822238483
1561308815838,-0.6129156351089478,6.57926607131958,2.0685901641845703,92.51256272274821
1561308815914,-1.5131354331970215,5.612008571624756,0.7469909191131592,93.76828617146589
1561308815917,,,,138.74558045980928
1561308815999,0.12449848651885986,,,
1561308816000,,11.15697956085205,-0.15322890877723694,290.80790242458806
1561308816053,1.3694833517074585,13.10107135772705,4.395754337310791,64.55937833687824
1561308816121,,,,63.25662903572504
1561308816122,-2.145204782485962,13.637372970581055,-0.8044517636299133,185.50594708477433
1561308816126,,,,186.31390382207348
1561308816232,0.038307227194309235,9.730035781860352,1.072602391242981,75.007730446111
1561308816301,1.0821791887283325,4.587290287017822,0.1628057211637497,351.6117353972806
1561308816327,5.793968200683594,7.594407558441162,1.5897499322891235,353.1882672817851
1561308816334,,,,351.48564839765487
1561308816393,-0.2777273952960968,,,
1561308816394,,16.385915756225586,0.6607996821403503,91.76769644281251
1561308816405,,,,95.59099045337553
1561308816467,2.652775526046753,,,
1561308816468,,9.959878921508789,1.3503297567367554,10.267027662241844
1561308816509,,,,12.2636729566496
1561308816566,-0.5650315880775452,,,98.26671023053882
1561308816567,,7.6997528076171875,1.3503297567367554,99.02980628536932
1561308816637,-0.2585737705230713,5.70777702331543,1.8770540952682495,85.43899342204043
1561308816721,0.1628057211637497,8.40843677520752,-0.13407529890537262,302.89095444373123
1561308816744,-1.2832920551300049,16.75941276550293,5.420472621917725,85.39306723006126
1561308816754,,,,85.1492294766918
1561308816859,-0.3734954595565796,12.574347496032715,-1.886630892753601,239.82029438363276
1561308816883,1.436521053314209,,,348.9453968849423
1561308816884,,7.987056732177734,0.181959331035614,
1561308816941,,,,349.25872412915385
1561308816954,0.5171475410461426,5.343858242034912,1.1779472827911377,50.20449611676207
1561308816964,,,,47.813632794028706
1561308817030,2.652775526046753,8.293514251708984,1.800439715385437,15.517151605515153
1561308817042,,,,14.600871483074172
1561308817102,-1.3694833517074585,,,185.6525092839845
1561308817103,,18.732234954833984,-0.689530074596405,
1561308817105,,,,188.78820815080235
1561308817175,5.631162166595459,8.65743350982666,0.4118026793003082,342.34418468421234
1561308817246,-0.028730420395731926,,,78.17980007025915
1561308817247,,9.567230224609375,1.5610195398330688,
1561308817322,-0.507570743560791,5.602431774139404,1.944091796875,93.04724359135514
1561308817421,-1.1300631761550903,8.954314231872559,1.4173674583435059,114.91294674737043
1561308817483,-1.7334020137786865,,,
1561308817484,,17.401058197021484,5.7556610107421875,92.18819020887514
1561308817525,-0.5746083855628967,,,237.54524033337157
1561308817526,,13.809755325317383,-1.9153614044189453,236.71023604695915
1561308817592,0.3447650372982025,8.006210327148438,-0.5650315880775452,284.68932334344225
1561308817604,,,,285.38855029934393
1561308817676,0.6033388376235962,4.108449935913086,0.8044517636299133,39.212450704312516
1561308817775,1.599326729774475,,3.064578056335449,49.19138440245786
1561308817776,,7.240066051483154,,
1561308817793,3.706224203109741,,,323.6616348418209
1561308817794,,13.541604995727539,-0.9193734526634216,
1561308817804,,,,327.47280868170174
1561308817868,1.50355863571167,13.187262535095215,-2.4803929328918457,282.94173748202445
1561308817882,,,,286.01785660871224
1561308817933,0.9097966551780701,,,56.33263063255674
1561308817934,,9.797073364257813,2.1930887699127197,
1561308817998,,,,58.81627524497554
1561308818009,-0.8140285611152649,,,
1561308818010,,3.9456443786621094,0.9193734526634216,121.38381332552714
1561308818019,,,,119.51358458737258
1561308818079,0.2777273952960968,,,
1561308818080,,5.238513469696045,2.499546527862549,75.21452808361147
1561308818092,,,,75.3665134530226
1561308818158,-2.7006595134735107,14.642937660217285,-2.011129379272461,205.56614437521011
1561308818263,-0.9959878921508789,,,
1561308818264,,13.924676895141602,-1.0534487962722778,217.2178050614699
1561308818309,2.298433542251587,7.977479934692383,2.2888567447662354,39.02273536992624
1561308818392,-0.6129156351089478,6.7708024978637695,-2.5091233253479004,244.725299113429
1561308818453,1.8100165128707886,,,
1561308818454,,6.45476770401001,2.078166961669922,38.4885804258854
1561308818552,2.6240451335906982,11.587936401367188,-0.40222588181495667,333.78901928648185
1561308818564,6.01423454284668,,-1.7621324062347412,321.6977163988213
1561308818565,,9.404424667358398,,
1561308818577,,,,326.6598829817814
1561308818648,0.24899697303771973,,,77.36195321904182
1561308818649,,12.890381813049316,4.079719543457031,78.28608464393375
1561308818744,-0.6799532771110535,,,114.78989405928348
1561308818745,,4.338293552398682,0.9864110946655273,
1561308818776,-1.4269442558288574,,,
1561308818777,,5.899312973022461,1.7717092037200928,115.97523240860417
1561308818785,,,,116.67232151529566
1561308818854,-0.6799532771110535,,,
1561308818855,,10.955866813659668,-1.6184803247451782,236.7369830677489
1561308818920,1.292868971824646,12.583924293518066,-0.4405331015586853,330.46059297185377
1561308818931,,,,329.99043348524134
1561308819000,-0.5171475410461426,,,
1561308819001,,9.155426979064941,0.3064578175544739,138.26203038732905
1561308819089,-1.1109095811843872,,,
1561308819090,,7.038952827453613,-1.015141487121582,211.29454206982973
1561308819128,0.09576806426048279,,,
1561308819132,,5.506663799285889,1.5514427423477173,74.47395799266371
1561308819187,,,,69.65825115607618
1561308819198,4.07014274597168,12.90953540802002,0.5267243981361389,348.97939842040427
1561308819209,,,,352.53529564760316
1561308819291,1.7621324062347412,12.564770698547363,0.1149216815829277,349.1571626312903
1561308819392,0.05746084079146385,,,78.28654909679727
1561308819393,,12.765883445739746,1.9057846069335938,
1561308819405,-1.0630255937576294,6.550535678863525,2.298433542251587,105.41414119693115
1561308819415,,,,105.73869812591181
1561308819473,-0.9768342971801758,,,
1561308819474,,4.836287498474121,1.2641384601593018,118.60163138977083
1561308819542,,,,120.91176529160924
1561308819544,-2.8155810832977295,12.306197166442871,-1.3311761617660522,201.52983042481276
1561308819555,,,,202.9346637333009
1561308819625,1.1013327836990356,10.304644584655762,5.449203014373779,75.50819889716536
1561308819672,,,,75.72809000730473
1561308819684,-2.2218191623687744,15.725116729736328,2.6240451335906982,126.05933735958934
1561308819754,-0.038307227194309235,9.040505409240723,-2.9879636764526367,126.31536017043811
1561308819765,,,,264.4994071002896
1561308819844,1.6089035272598267,,,
1561308819845,,3.7924153804779053,0.7948749661445618,21.53602529270438
1561308819940,4.3191399574279785,7.661445617675781,0.5937620401382446,353.18597959529995
1561308819969,-0.31603461503982544,15.73469352722168,-0.8906430602073669,232.56480299438164
1561308819977,,,,233.98139788862062
1561308820043,2.5953147411346436,,,35.48665764415148
1561308820044,,13.646949768066406,3.0550012588500977,
1561308820117,-0.9385270476341248,8.724471092224121,0.9576807022094727,35.198918849891754
1561308820224,-1.1300631761550903,,,
1561308820225,,5.70777702331543,1.944091796875,105.22721257972626
1561308820315,-0.31603461503982544,,-0.9959878921508789,237.1227111709362
1561308820316,,8.312667846679688,5.497087001800537,
1561308820372,,,,98.91604948474276
1561308820388,-0.8427590131759644,12.373234748840332,-2.126051187515259,233.82393470749514
1561308820470,0.24899697303771973,8.820239067077637,0.35434186458587646,232.23538297071195
1561308820544,0.8523358106613159,,,
1561308820545,,3.6583402156829834,0.7757213711738586,25.938737910937903
1561308820615,2.5474305152893066,9.02135181427002,2.518700122833252,23.399799502093288
1561308820704,-1.886630892753601,19.06742286682129,-0.17238251864910126,159.2212854782136
1561308820801,3.1028854846954346,9.854534149169922,-0.15322890877723694,327.3618898246753
1561308820812,-1.4652514457702637,6.100425720214844,1.4939818382263184,108.91405307105077
1561308820815,,,,109.75627003722667
1561308820895,-2.097320795059204,,,121.57895183011442
1561308820896,,6.426037311553955,1.359906554222107,121.81325463940254
1561308820962,-0.5937620401382446,6.71334171295166,1.0342950820922852,95.96446519719177
1561308821062,-1.6376339197158813,17.697938919067383,7.5848307609558105,78.25879803819953
1561308821156,0.507570743560791,12.277466773986816,-2.2888567447662354,253.57504544742028
1561308821212,,,,224.2191724324615
1561308821225,-0.1149216815829277,,,60.695492512077806
1561308821226,,5.477933406829834,1.0342950820922852,
1561308821293,,,,58.233783052178524
1561308821294,2.892195701599121,6.445190906524658,2.557007312774658,2.721318546949135
1561308821305,,,,4.437078715042446
1561308821364,-0.6703764796257019,,,156.6250486124217
1561308821375,,,,160.45432586869765
1561308821460,0.047884032130241394,12.986149787902832,0.7852981686592102,52.840283192942934
1561308821533,-0.4118026793003082,6.655880928039551,1.9249382019042969,71.89398380728562
1561308821615,-1.4748282432556152,,,
1561308821616,,4.654327869415283,1.5705963373184204,100.97754401022519
1561308821647,-0.8044517636299133,,,
1561308821648,,8.370129585266113,3.112462282180786,71.67851182953922
1561308821654,,,,70.41581475767896
1561308821717,-2.145204782485962,16.519990921020508,3.840299606323242,83.69503439107189
1561308821764,,,,85.21684151928577
1561308821785,-1.8387469053268433,14.144943237304688,0.3064578175544739,135.16518163651025
1561308821795,,,,134.30441387654858
1561308821869,-0.40222588181495667,10.036493301391602,-0.009576806798577309,144.695945642076
1561308821925,0.38307225704193115,4.3191399574279785,0.06703764945268631,329.96526423814987
1561308821982,,,,328.52810705941454
1561308821994,1.2545616626739502,,,
1561308821995,,6.665457725524902,2.4420857429504395,25.72301150864496
1561308822005,,,,23.657606699862697
1561308822076,-1.5610195398330688,18.674774169921875,1.015141487121582,105.4187993859451
1561308822142,1.7621324062347412,,,
1561308822143,,11.616666793823242,1.886630892753601,6.3280870230863115
1561308822167,,,,7.879027042544408
1561308822221,-0.9864110946655273,6.866570472717285,1.9057846069335938,82.53869019477793
1561308822285,-1.6759412288665771,4.941632270812988,1.436521053314209,103.99997101984752
1561308822357,-0.2106897532939911,8.398859977722168,3.4189200401306152,57.17175352303866
1561308822438,1.235408067703247,,,
1561308822439,,13.493721008300781,6.473921298980713,43.16368440331365
1561308822509,-2.4133553504943848,13.85763931274414,1.580173134803772,106.38558534220374
1561308822597,0.8906430602073669,7.307103633880615,-0.5746083855628967,284.63977715120296
1561308822678,0.20111294090747833,,,5.9074754362604835
1561308822679,,6.971915245056152,0.2298433631658554,4.212309996062004
1561308822696,1.9823989868164063,7.249642848968506,2.738966703414917,11.40573545632526
1561308822705,,,,11.4038375175096
1561308822779,-0.07661445438861847,16.089035034179688,1.5131354331970215,49.1465407954621
1561308822836,3.3518824577331543,9.461885452270508,1.0247182846069336,333.8590833669878
1561308822852,,,,340.4978069666395
1561308822932,-0.06703764945268631,9.404424667358398,2.1547815799713135,60.306123918062895
1561308822996,-1.235408067703247,4.271255970001221,0.363918662071228,129.3229929903182
1561308823078,-0.9864110946655273,11.310209274291992,0.13407529890537262,138.91628054754625
1561308823154,0.4213795065879822,13.809755325317383,5.4013190269470215,54.880324094242326
1561308823227,-0.8427590131759644,,,93.09343616071197
1561308823228,,14.288596153259277,1.0534487962722778,
1561308823253,1.6759412288665771,,,
1561308823254,,7.718906402587891,1.0055646896362305,354.9418581601438
1561308823267,,,,353.20707890341976
1561308823348,-0.10534487664699554,5.832275390625,0.2968810200691223,72.6302098979213
1561308823397,2.4612393379211426,8.628703117370605,2.403778553009033,5.073712109842859
1561308823410,,,,5.690183639987083
1561308823470,-0.05746084079146385,15.878345489501953,2.518700122833252,53.45806697318142
1561308823478,,,,58.60262009754837
1561308823541,3.5913026332855225,9.02135181427002,-1.292868971824646,298.9812346345055
1561308823602,,,,303.58683460693965
1561308823615,-0.9193734526634216,,,76.85885514515701
1561308823616,,14.24071216583252,5.2672438621521,
1561308823705,-1.4173674583435059,,,
1561308823706,,2.4229321479797363,-0.33518823981285095,164.16105587088524
1561308823797,-0.9002198576927185,,0.7661445140838623,110.30312913312378
1561308823798,,6.052541732788086,,
1561308823816,-0.9193734526634216,19.096153259277344,9.289502143859863,70.7182077228029
1561308823867,,,,68.95603257731796
1561308823885,1.0438719987869263,13.110648155212402,0.363918662071228,344.19652515693065
1561308823961,0.019153613597154617,8.20732307434082,-0.3447650372982025,340.5870775390916
1561308823971,,,,234.5279632863834
1561308824024,0.6512228846549988,5.056553840637207,1.3407529592514038,28.62835370796762
1561308824046,,,,29.445010398722104
1561308824101,1.5322890281677246,9.84495735168457,2.279279947280884,20.379792086984423
1561308824104,,,,18.072079487206793
1561308824188,0.8044517636299133,,,
1561308824191,,,,34.196974494880465
1561308824192,,16.194379806518555,2.5282769203186035,
1561308824239,2.940079689025879,9.730035781860352,-0.4884171485900879,307.475968226007
1561308824244,,,,308.31597904108105
1561308824308,-1.1971008777618408,9.854534149169922,2.499546527862549,85.19659683858583
1561308824317,,,,86.27714642566019
1561308824383,-1.0630255937576294,,,
1561308824384,,4.8267107009887695,1.235408067703247,101.56481733544126
1561308824456,-0.028730420395731926,8.676587104797363,3.706224203109741,60.81858618129979
1561308824535,-0.9576807022094727,17.8128604888916,6.4834980964660645,65.42822621062805
1561308824598,0.9097966551780701,,,266.032484040634
1561308824599,,12.047622680664063,-1.1109095811843872,263.83961765665555
1561308824689,0.35434186458587646,,0.15322890877723694,339.422434662956
1561308824691,,5.726930618286133,,
1561308824752,-0.6512228846549988,5.669469833374023,1.0821791887283325,79.23698358018294
1561308824827,2.4133553504943848,7.15387487411499,3.9839515686035156,12.758249515771183
1561308824909,3.6966474056243896,10.007762908935547,-2.911349296569824,261.40242857587657
1561308824935,2.0398597717285156,12.708422660827637,2.0685901641845703,356.8788684325779
1561308824944,,,,2.933504136487727
1561308825004,-2.4612393379211426,9.490615844726563,1.436521053314209,112.33239199591287
1561308825015,,,,114.69306929760938
1561308825091,-0.5937620401382446,5.477933406829834,3.4380736351013184,75.1741889863734
1561308825145,-1.599326729774475,6.617573261260986,2.3367409706115723,92.05934552037206
1561308825157,,,,92.06090963369195
1561308825217,-0.17238251864910126,14.719552040100098,1.2832920551300049,59.75865010514053
1561308825229,,,,61.93757607302297
1561308825285,-1.944091796875,13.120224952697754,-0.10534487664699554,147.05950528360225
1561308825294,,,,146.89141432812823
1561308825372,0.038307227194309235,6.445190906524658,-0.26815059781074524,239.8023583068723
1561308825435,-1.8387469053268433,6.876147270202637,0.2968810200691223,134.99711800179293
1561308825518,2.2026655673980713,5.257667064666748,2.7485435009002686,13.787982495420636
1561308825591,4.376600742340088,9.979032516479492,0.5171475410461426,310.65450262420455
1561308825667,4.2329487800598145,9.557653427124023,-1.742978811264038,279.5595780691959
1561308825741,-1.6280571222305298,12.334927558898926,3.466804027557373,86.37377994203752
1561308825787,-0.9385270476341248,,,
1561308825788,,2.892195701599121,-0.1628057211637497,154.8301978419474
1561308825789,,,,154.4192800011011
1561308825860,-1.5131354331970215,,,
1561308825861,,7.058106422424316,2.5091233253479004,95.00156561857091
1561308825916,-1.7812861204147339,16.673221588134766,2.2601263523101807,92.72750877592853
1561308825929,,,,94.3755924415176
1561308825990,0.8810662031173706,11.473014831542969,-1.9823989868164063,250.43298084429603
1561308826022,,,,252.90070770085413
1561308826076,-0.4884171485900879,12.287043571472168,1.742978811264038,74.84878511393566
1561308826137,0.43095630407333374,5.497087001800537,-0.7757213711738586,258.3159617125962
1561308826202,0.5650315880775452,,,306.9937397951312
1561308826203,,5.4875102043151855,-0.09576806426048279,
1561308826233,,,,303.29305451035907
1561308826275,1.50355863571167,,,
1561308826276,,16.4625301361084,0.8427590131759644,344.54954689927735
1561308826350,4.989516258239746,10.448296546936035,0.33518823981285095,309.61362619092426
1561308826426,-2.3080103397369385,,,
1561308826427,,15.217546463012695,0.47884035110473633,137.86156273591286
1561308826506,-0.17238251864910126,3.4093432426452637,-1.091755986213684,222.3849387912329
1561308826565,0.08619125932455063,,,
1561308826566,,3.361459255218506,0.4213795065879822,51.236735775836905
1561308826645,-1.8291701078414917,12.765883445739746,-3.734954595565796,212.95216067950014
1561308826684,0.9193734526634216,13.522451400756836,0.5841852426528931,7.835112341275817
1561308826736,,,,6.556028791822996
1561308826753,-0.9672574996948242,,,
1561308826754,,11.30063247680664,1.50355863571167,101.32394388417157
1561308826794,,,,100.29133539488151
1561308826874,-1.8387469053268433,,,
1561308826875,,7.383718013763428,-2.786850690841675,204.51582520540228
1561308826897,2.030282974243164,6.885724067687988,1.7525556087493896,11.019284206859538
1561308826904,,,,2.534004664386373
1561308827027,5.506663799285889,9.835380554199219,0.8236053586006165,311.8656215225475
1561308827039,1.4460978507995605,13.560758590698242,-1.292868971824646,272.55019888630784
1561308827049,,,,275.8926407491128
1561308827134,-0.507570743560791,,,
1561308827135,,12.105083465576172,1.3982137441635132,77.30319993180137
1561308827175,0.15322890877723694,4.932055473327637,1.4939818382263184,58.00747839440851
1561308827184,,,,57.827195551266016
1561308827257,-1.8770540952682495,10.113107681274414,3.6296098232269287,94.03592713409284
1561308827325,-0.20111294090747833,13.053187370300293,0.047884032130241394,130.32481781701898
1561308827384,1.867477297782898,11.27190113067627,1.2449848651885986,0.30320514398539444
1561308827395,,,,358.95559427990946
1561308827458,-1.436521053314209,12.392388343811035,0.4884171485900879,128.7101747576063
1561308827513,,,,128.38623254565093
1561308827527,-1.886630892753601,7.642292022705078,0.038307227194309235,146.51940124479432
1561308827591,,,,142.68261078043136
1561308827622,1.0821791887283325,,,
1561308827625,,6.27280855178833,2.4612393379211426,35.692406847614336
1561308827683,5.506663799285889,7.479485988616943,-1.359906554222107,278.46972576447195
1561308827742,-0.3447650372982025,,,
1561308827743,,15.150507926940918,1.6950948238372803,59.05897918694279
1561308827752,,,,62.90979885986093
1561308827815,1.3982137441635132,,,
1561308827816,,9.481039047241211,0.727837324142456,345.25455731785877
1561308827902,-0.7182605266571045,,,121.87919328564982
1561308827903,,4.501099109649658,0.33518823981285095,121.72647025580835
1561308827977,-0.9864110946655273,,,
1561308827978,,7.412448406219482,3.6296098232269287,80.04106077003348
1561308828016,-2.4133553504943848,14.259865760803223,-1.1013327836990356,166.60093604619718
1561308828072,,,,165.5721183118965
1561308828105,1.656787633895874,,,
1561308828106,,10.72602367401123,3.4955344200134277,29.19343745611758
1561308828155,-2.8443117141723633,14.958971977233887,0.7086837291717529,127.36145828333889
1561308828173,,,,123.54183891454937
1561308828225,0.23942017555236816,6.751648902893066,0.6607996821403503,26.29032360601161
1561308828276,,,,18.682657417870928
1561308828295,0.9576807022094727,5.95677375793457,1.4173674583435059,4.436451191412459
1561308828357,,,,0.6412413178909446
1561308828369,3.485957622528076,8.370129585266113,-0.6320692300796509,286.9118259182294
1561308828403,,,,287.07352381664026
1561308828450,-1.5705963373184204,,,
1561308828451,,15.140931129455566,2.2409727573394775,73.86589357161415
1561308828463,,,,77.20079490557538
1561308828533,-2.7102363109588623,,,
1561308828534,,13.168108940124512,2.298433542251587,93.6198729909907
1561308828627,-0.23942017555236816,6.761225700378418,2.31758713722229,52.955750955956546
1561308828645,-0.2777273952960968,6.27280855178833,2.920926094055176,53.658942836671486
1561308828714,0.22026655077934265,7.977479934692383,-1.4269442558288574,50.36820209078894
1561308828743,,,,224.83096613679788
1561308828801,-0.7757213711738586,16.299724578857422,5.621585369110107,54.359597302109705
1561308828812,,,,56.68297152565418
1561308828855,-0.727837324142456,11.21444034576416,1.1109095811843872,76.12224656392783
1561308828883,,,,74.92349372307723
1561308828971,0.3064578175544739,6.789956092834473,0.6320692300796509,12.776567229351485
1561308829020,1.37906014919281,4.041412353515625,0.727837324142456,323.7346734697104
1561308829084,1.9057846069335938,10.429142951965332,2.9879636764526367,2.107180593623582
1561308829167,1.5418659448623657,10.812214851379395,-0.545877993106842,282.0887288169599
1561308829203,-0.43095630407333374,,,
1561308829204,,9.691728591918945,0.6320692300796509,79.46472257767863
1561308829236,,,,84.47668123968816
1561308829310,-1.0821791887283325,,,86.21749838363849
1561308829391,-1.4173674583435059,,,120.8676286091926
1561308829392,,5.822698593139648,0.689530074596405,116.012989694336
1561308829471,-0.2298433631658554,7.642292022705078,2.8155810832977295,61.45299464197808
1561308829520,0.26815059781074524,,,
1561308829521,,12.325350761413574,3.07415509223938,47.330096381926865
1561308829607,-2.6144683361053467,12.440272331237793,1.1109095811843872,115.99311384385126
1561308829663,1.3886369466781616,,,
1561308829664,,4.6255974769592285,-0.8810662031173706,268.80731669284336
1561308829694,-0.1628057211637497,,,
1561308829695,,5.564124584197998,0.047884032130241394,108.98984768027037
1561308829756,,,,105.72799521948241
1561308829767,3.1699230670928955,14.001291275024414,1.867477297782898,328.0582685916931
1561308829826,,,,327.87211861605357
1561308829838,3.44765043258667,10.046070098876953,2.738966703414917,333.78496727675673
1561308829854,,,,332.2349582974599
1561308829905,-3.2082302570343018,,,
1561308829906,,14.144943237304688,1.6663644313812256,98.45409647041811
1561308829925,,,,101.91153822827857
1561308829975,-0.7948749661445618,4.022258758544922,2.011129379272461,69.16390938470732
1561308830046,-1.8962076902389526,5.774814605712891,2.049436569213867,70.14100209642345
1561308830072,,,,91.3920087177051
1561308830115,-2.0207061767578125,16.15607261657715,0.009576806798577309,131.912276723535
1561308830189,,,,134.59812567123745
1561308830190,-1.4460978507995605,14.575900077819824,1.9919757843017578,82.73438194468793
1561308830204,,,,83.44460550515339
1561308830265,-0.7948749661445618,10.60152530670166,1.656787633895874,73.19941737278259
1561308830277,,,,72.35447516112788
1561308830330,0.5267243981361389,4.414907932281494,-0.9385270476341248,245.91132048166673
1561308830370,,,,241.96213242432202
1561308830456,2.873042106628418,,1.4748282432556152,315.7611140477321
1561308830457,,4.520252704620361,,
1561308830467,1.292868971824646,16.70195198059082,2.7676970958709717,12.905220672557846
1561308830491,,,,13.191133244988237
1561308830563,2.9305028915405273,,,
1561308830564,,10.888829231262207,-0.4692635238170624,288.1934357839014
1561308830625,-0.689530074596405,12.277466773986816,2.0207061767578125,68.10473828973511
1561308830700,-1.1013327836990356,5.688623428344727,1.216254472732544,98.93617122203761
1561308830774,-1.6280571222305298,7.412448406219482,2.8155810832977295,89.51803020569622
1561308830855,-2.231395959854126,13.081917762756348,-1.2258312702178955,169.0574272415706
1561308830938,-0.20111294090747833,12.344504356384277,3.706224203109741,62.78932798328026
1561308830978,-1.867477297782898,12.277466773986816,0.15322890877723694,137.47807493477333
1561308831032,1.5418659448623657,,,
1561308831034,,5.286397457122803,-0.19153612852096558,302.7800731527453
1561308831095,1.5514427423477173,8.341399192810059,3.955221176147461,297.1329854451
1561308831118,,,,17.143491363881424
1561308831194,3.3231520652770996,12.239158630371094,1.7046716213226318,325.36618026618385
1561308831275,1.3694833517074585,,,
1561308831276,,12.09550666809082,1.800439715385437,0.407360886433878
1561308831303,-0.7182605266571045,,,
1561308831304,,13.177685737609863,2.250549554824829,63.8551653428824
1561308831358,,,,69.60818586945993
1561308831433,-0.181959331035614,4.357447147369385,1.7908629179000854,64.17203147885766
1561308831467,-0.7086837291717529,,0.2585737705230713,120.35025543994249
1561308831468,,5.631162166595459,,
1561308831525,-0.4884171485900879,8.743624687194824,-0.9672574996948242,204.71675571040566
1561308831535,,,,210.23162803119237
1561308831593,-1.0821791887283325,,,
1561308831594,,15.456966400146484,5.1331682205200195,77.59547055657538
1561308831604,,,,83.82907002334423
1561308831670,-3.9169139862060547,15.476119995117188,0.3447650372982025,150.38236499405676
1561308831685,,,,152.03633628271038
1561308831739,0.2585737705230713,5.238513469696045,0.43095630407333374,35.339238256200474
1561308831799,,,,31.799977662272454
1561308831800,1.4652514457702637,4.730942726135254,2.0685901641845703,
1561308831822,,,,28.14930643769776
1561308831870,4.8937482833862305,7.747636795043945,1.6376339197158813,335.8458351323828
1561308831888,,,,340.83634017020927
1561308831976,0.45010992884635925,16.510414123535156,-1.139639973640442,259.1442655834328
1561308832003,3.9169139862060547,,,
1561308832004,,12.459425926208496,1.5897499322891235,351.68527604407416
1561308832026,,,,355.00442311982795
1561308832097,0.7565677165985107,3.3518824577331543,1.3982137441635132,44.90164994328546
1561308832155,-1.9153614044189453,6.3973069190979,1.2066776752471924,123.37955361986985
1561308832167,,,,123.4720207208535
1561308832233,-0.6703764796257019,,-0.727837324142456,198.80029558717888
1561308832234,,7.010222434997559,,
1561308832236,,,,200.2645378810679
1561308832291,-1.4077905416488647,,,
1561308832292,,15.294160842895508,6.004657745361328,83.58713106256403
1561308832348,,,,83.6796732956285
1561308832360,-1.4844050407409668,,,100.8923852116535
1561308832361,,14.824896812438965,2.126051187515259,
1561308832408,,,,98.28390181667976
1561308832429,1.0055646896362305,,,
1561308832430,,7.058106422424316,-0.5554547905921936,299.4357427426348
1561308832485,,,,293.0101056771619
1561308832498,0.689530074596405,,,20.656088606837045
1561308832499,,4.999093055725098,0.9576807022094727,
1561308832558,,,,12.43944275229802
1561308832575,2.3942017555236816,8.341399192810059,3.1699230670928955,12.74060969846596
1561308832584,,,,12.035671850644462
1561308832642,1.3694833517074585,,,351.9987185477279
1561308832643,,16.251840591430664,0.9864110946655273,
1561308832676,,,,356.1509314168303
1561308832747,0.06703764945268631,15.016432762145996,1.1492167711257935,48.49413478632084
1561308832774,0.8619126081466675,7.2113356590271,3.19865345954895,50.01054606509041
1561308832826,,,,49.07966299820396
1561308832892,-1.9249382019042969,,,
1561308832894,,5.056553840637207,1.015141487121582,121.89281268285484
1561308832918,-1.1971008777618408,6.406883716583252,1.50355863571167,100.4103036298448
1561308832934,,,,99.61209357249129
1561308832987,-1.7046716213226318,,,
1561308832988,,17.324443817138672,5.410895824432373,80.02037895722668
1561308833037,,,,83.36695308447952
1561308833054,0.9097966551780701,12.172121047973633,0.9385270476341248,15.503627830958521
1561308833115,,,,14.15119317246166
1561308833127,1.9057846069335938,9.136273384094238,0.8140285611152649,349.8363011470694
1561308833162,,,,342.7642105823169
1561308833226,0.009576806798577309,,,
1561308833227,,7.01979923248291,0.13407529890537262,47.490803902908056
1561308833293,2.365471363067627,,,344.5811279864522
1561308833294,,5.027823448181152,1.7717092037200928,
1561308833376,0.6703764796257019,15.16008472442627,-0.5554547905921936,270.8564349155497
1561308833403,4.855441093444824,,,
1561308833404,,9.96945571899414,0.4692635238170624,313.44759920225454
1561308833445,,,,317.90366242809506
1561308833519,-0.8523358106613159,14.863204002380371,4.1180267333984375,67.35052831101478
1561308833545,-0.05746084079146385,3.4572272300720215,0.05746084079146385,97.24348642116837
1561308833609,,,,97.48660017448583
1561308833621,-0.7948749661445618,,,
1561308833622,,6.339846134185791,3.179499864578247,75.22539491458099
1561308833675,,,,77.07755097219166
1561308833686,-3.2369606494903564,,,
1561308833687,,17.92778205871582,4.01268196105957,96.9736393074395
1561308833738,,,,96.70596419386675
1561308833754,-0.24899697303771973,13.800178527832031,-1.944091796875,224.80447866319656
1561308833839,,,,223.3963532035284
1561308833840,0.13407529890537262,13.436260223388672,3.1507694721221924,
1561308833859,,,,47.845861041627415
1561308833909,1.3215993642807007,,,
1561308833910,,6.473921298980713,-0.7565677165985107,282.5972705516132
1561308833925,,,,277.4223025948722
1561308833981,2.3750481605529785,5.458779811859131,2.6431987285614014,358.7246649437411
1561308833997,,,,358.1184762633924
1561308834053,1.5322890281677246,,,352.6149595589876
1561308834054,,12.861651420593262,1.3982137441635132,
1561308834065,,,,359.70911979896977
1561308834145,3.706224203109741,10.649409294128418,-0.4213795065879822,305.1408494921847
1561308834174,-0.5267243981361389,14.834473609924316,3.3710360527038574,66.32278974660295
1561308834228,,,,67.152678221327
1561308834244,0.3064578175544739,3.8115692138671875,0.6320692300796509,30.413500487178624
1561308834306,,,,29.09474805280007
1561308834321,-1.8579005002975464,6.71334171295166,2.4612393379211426,96.84827801541314
1561308834382,,,,98.46998349042758
1561308834385,-2.097320795059204,15.399505615234375,1.9249382019042969,104.63711838638301
1561308834459,0.8810662031173706,12.899958610534668,2.2601263523101807,105.4299394244814
1561308834490,,,,36.5799455340279
1561308834550,-0.6512228846549988,11.702857971191406,1.7908629179000854,78.42650650308002
1561308834555,,,,75.53616852181653
1561308834614,-0.6129156351089478,,-1.742978811264038,210.62863960688856
1561308834615,,5.765237808227539,,
1561308834627,,,,204.7941280933236
1561308834708,2.403778553009033,,,
1561308834709,,4.788403511047363,3.0837318897247314,15.401299644360677
1561308834742,2.1356279850006104,8.216899871826172,1.6376339197158813,348.6394027025784
1561308834816,1.015141487121582,,,
1561308834817,,15.275007247924805,1.37906014919281,350.467182668815
1561308834892,2.0207061767578125,12.09550666809082,2.164358377456665,13.375441630872785
1561308834942,,,,8.801386887120316
1561308834945,-2.3080103397369385,,,
1561308834946,,6.5696892738342285,0.15322890877723694,141.12349715897088
1561308835030,-1.5705963373184204,,2.1739351749420166,142.17770953660568
1561308835031,,6.358999729156494,,
1561308835045,,,,96.63898735886556
1561308835120,1.6855180263519287,,,327.7283260585519
1561308835121,,5.698200225830078,0.3447650372982025,331.5388220021576
1561308835182,-3.4093432426452637,,,
1561308835184,,17.31486701965332,4.76924991607666,97.29948031198415
1561308835185,,,,96.96391994825058
1561308835256,-1.3311761617660522,13.800178527832031,1.522712230682373,98.11939671052
1561308835293,-0.1628057211637497,,,
1561308835294,,7.173028469085693,-1.3982137441635132,220.18623259551407
1561308835350,,,,214.4280006345998
1561308835366,2.126051187515259,,,
1561308835367,,3.7445313930511475,2.011129379272461,353.8334516465396
1561308835414,,,,345.68195213630406
1561308835459,2.5953147411346436,9.442731857299805,4.491522312164307,12.367775284884317
1561308835467,,,,9.57424072095381
1561308835542,1.0630255937576294,15.284584045410156,0.2298433631658554,318.28556562534715
1561308835616,1.6280571222305298,12.775460243225098,3.801992416381836,16.45316243692099
1561308835692,-1.292868971824646,,,91.87849577152843
1561308835693,,6.751648902893066,1.292868971824646,
1561308835716,-0.181959331035614,5.2672438621521,3.141192674636841,58.33127717239125
1561308835760,,,,57.11507661330586
1561308835784,-0.7565677165985107,7.364564418792725,3.936067581176758,63.58811860671324
1561308835829,,,,65.08694897855918
1561308835894,0.1149216815829277,12.306197166442871,5.161899089813232,48.70902961308235
1561308835923,-4.548983097076416,,,
1561308835925,,18.34916114807129,3.0358476638793945,102.81183229296715
1561308835975,,,,100.19134825562173
1561308835995,2.31758713722229,6.464344501495361,-0.19153612852096558,293.8122977348016
1561308836049,,,,289.39466798342073
1561308836115,0.5363011956214905,5.70777702331543,1.6759412288665771,17.326014509071683
1561308836135,0.7182605266571045,8.954314231872559,2.853888511657715,19.493554551607758
1561308836198,,,,18.32734073196309
1561308836210,-0.8523358106613159,16.28057098388672,3.667917013168335,46.842755554457256
1561308836273,,,,50.74058058924345
1561308836274,3.428496837615967,11.587936401367188,2.738966703414917,
1561308836333,,,,343.4988401162341
1561308836401,,,,79.84385954831686
1561308836402,-1.1875240802764893,9.366117477416992,1.6184803247451782,
1561308836414,-0.8810662031173706,4.577713489532471,2.011129379272461,75.10276569822258
1561308836471,,,,76.7315882303522
1561308836489,-0.9481038451194763,,3.6966474056243896,67.95867469433438
1561308836490,,7.7763671875,,
1561308836555,-1.0821791887283325,13.599065780639648,7.929595947265625,69.94993438458152
1561308836612,,,,66.45147734075516
1561308836626,-2.030282974243164,,,
1561308836628,,14.556746482849121,-0.6416460275650024,152.03084481061768
1561308836694,0.33518823981285095,7.623138427734375,-0.7469909191131592,150.7370840384122
1561308836775,-0.14365209639072418,6.023811340332031,0.8619126081466675,240.3594421959569
1561308836799,,,,47.17081295538753
1561308836874,4.127603530883789,,,
1561308836875,,9.27034854888916,2.3080103397369385,326.90814328263843
1561308836936,-1.4173674583435059,,,
1561308836937,,17.7937068939209,0.45010992884635925,109.58623247783922
1561308837008,3.19865345954895,,,
1561308837009,,,,323.4181727488558
1561308837086,-0.2106897532939911,9.14585018157959,2.7293899059295654,55.00062080099917
1561308837167,-0.8140285611152649,,,77.14921331696343
1561308837168,,5.305551052093506,1.7717092037200928,74.71717419881867
1561308837184,-0.43095630407333374,5.535394191741943,2.432508945465088,61.67899877142463
1561308837256,-3.3039982318878174,,,60.94059385044375
1561308837257,,19.613300323486328,4.797980308532715,
1561308837333,,,,83.63096721665715
1561308837334,0.23942017555236816,11.951854705810547,-0.45010992884635925,251.99533880561228
1561308837355,,,,248.04610976713252
1561308837432,0.13407529890537262,,,
1561308837433,,7.881711959838867,-0.08619125932455063,277.5877434369482
1561308837514,1.6950948238372803,4.4723687171936035,0.9481038451194763,333.6733192970364
1561308837552,1.9728221893310547,,,0.3827303971935976
1561308837553,,8.667010307312012,2.6240451335906982,
1561308837565,,,,0.6289682150043632
1561308837621,1.9632453918457031,17.228675842285156,-0.5554547905921936,288.93925829032094
1561308837635,,,,295.89728128083965
1561308837692,3.4572272300720215,,,
1561308837693,,10.228029251098633,0.38307225704193115,312.68225601518714
1561308837705,,,,322.79912538362083
1561308837761,-0.009576806798577309,9.701305389404297,2.2409727573394775,59.91721294672237
1561308837832,-3.332728862762451,8.427590370178223,-0.507570743560791,64.25270284314468
1561308837844,,,,162.92542000851657
1561308837912,-1.1683704853057861,7.4986395835876465,1.8770540952682495,101.53348725771838
1561308837926,,,,103.49067113419636
1561308838000,0.2777273952960968,14.642937660217285,1.2737152576446533,54.75150331140128
1561308838041,2.3080103397369385,,,
1561308838042,,11.262324333190918,0.9959878921508789,0.30450456079455535
1561308838055,,,,358.22458399920043
1561308838134,-0.009576806798577309,10.630255699157715,0.26815059781074524,67.76395283128647
1561308838210,-0.47884035110473633,8.149862289428711,-0.5746083855628967,201.0563070700341
1561308838234,2.0877439975738525,7.872135162353516,2.097320795059204,18.38620500977754
1561308838294,,,,18.359691922966817
1561308838310,2.604891538619995,,,
1561308838311,,13.42668342590332,1.0438719987869263,349.2146275740986
1561308838380,4.252102375030518,10.160991668701172,-0.363918662071228,351.9427545389898
1561308838404,,,,328.5802350631601
1561308838485,0.15322890877723694,8.628703117370605,2.030282974243164,73.06641992926416
1561308838553,0.15322890877723694,,,
1561308838554,,4.299986362457275,1.292868971824646,75.19614121436581
1561308838625,-1.292868971824646,10.074800491333008,3.160346269607544,102.46276181505527
1561308838654,-0.7086837291717529,14.173673629760742,0.45010992884635925,131.6996529346725
1561308838709,,,,132.82223550589913
1561308838727,2.0877439975738525,10.304644584655762,1.015141487121582,11.506378293745342
1561308838812,2.0877439975738525,11.961431503295898,0.4884171485900879,13.18298909817662
1561308838825,,,,354.8249684371223
1561308838901,1.5897499322891235,4.127603530883789,0.13407529890537262,343.942394308482
1561308838972,1.4652514457702637,2.9305028915405273,-1.4844050407409668,280.8043595548632
1561308839055,1.4652514457702637,11.27190113067627,2.2697031497955322,42.13059438568712
1561308839074,2.9975404739379883,10.247182846069336,0.545877993106842,354.59321969169696
1561308839127,,,,355.3826153899266
1561308839144,0.22026655077934265,12.334927558898926,2.432508945465088,73.83875723004167
1561308839210,,,,74.40505504431661
1561308839219,-1.0055646896362305,5.295974254608154,0.5171475410461426,140.64537025669165
1561308839294,,,,141.18849323911272
1561308839295,-0.05746084079146385,,3.294421434402466,86.10774407386555
1561308839296,,6.0621185302734375,,
1561308839320,,,,85.38963847509791
1561308839398,-2.9879636764526367,15.705963134765625,-0.5937620401382446,177.17404156062022
1561308839472,-2.1068975925445557,,,193.82212587099343
1561308839473,,13.723564147949219,-1.091755986213684,192.06466355603584
1561308839498,2.4899697303771973,7.029376029968262,1.9249382019042969,28.314013034438005
1561308839560,,,,22.75402219154148
1561308839564,-0.33518823981285095,7.268796443939209,-0.15322890877723694,185.1646015508138
1561308839631,,,,181.4369711697659
1561308839643,0.6799532771110535,6.809109687805176,2.738966703414917,60.91405173532905
1561308839692,,,,60.214052968051135
1561308839704,0.8906430602073669,13.311761856079102,-0.7661445140838623,294.06444099820175
1561308839772,,,,299.1149902290218
1561308839820,4.175487995147705,,,344.6411175379324
1561308839821,,9.481039047241211,0.47884035110473633,
1561308839870,-1.4460978507995605,,,
1561308839871,,12.97657299041748,1.015141487121582,132.431412081591
1561308839882,,,,134.99654426590263
1561308839931,-0.5841852426528931,3.9169139862060547,1.7046716213226318,105.2200272207194
1561308839954,,,,104.85164096783478
1561308840014,-1.7046716213226318,7.967903137207031,3.5051112174987793,111.26989459881486
1561308840104,-2.806004285812378,15.207969665527344,2.6240451335906982,128.55820304857352
1561308840146,1.5705963373184204,,,315.4556918937112
1561308840147,,9.797073364257813,-0.8810662031173706,
1561308840157,,,,315.4960344060439
1561308840231,-2.691082715988159,15.351621627807617,1.3694833517074585,143.0920396400386
1561308840266,-0.22026655077934265,6.473921298980713,-1.6759412288665771,242.17991983619703
1561308840346,,,,237.15074226728996
1561308840347,1.0342950820922852,5.142745018005371,1.5705963373184204,
1561308840435,3.8307228088378906,,1.4748282432556152,37.003260168217764
1561308840436,,11.587936401367188,,
1561308840474,1.4173674583435059,,,
1561308840476,,,,301.4420971509477
1561308840540,,11.635820388793945,-0.7852981686592102,309.34301409600835
1561308840551,-0.2968810200691223,,,
1561308840552,,10.381258964538574,2.786850690841675,82.71201307515616
1561308840604,,,,83.5244094354158
1561308840630,-2.4612393379211426,,3.294421434402466,115.68914310502902
1561308840631,,7.393294811248779,,
1561308840692,-0.038307227194309235,6.914454460144043,4.050989151000977,115.78768907437396
1561308840725,,,,83.58810094942618
1561308840780,,,,213.75819130345337
1561308840781,-2.365471363067627,11.338939666748047,-3.380612850189209,
1561308840794,,,,215.43744795241435
1561308840856,1.8483237028121948,10.572794914245605,4.6734819412231445,61.09230601228808
1561308840877,,,,62.59332887485755
1561308840894,-3.2752678394317627,,,
1561308840895,,15.169661521911621,-0.5363011956214905,174.27302799368405
1561308840964,1.3503297567367554,6.167463779449463,0.038307227194309235,173.63482877801638
1561308841054,0.7757213711738586,,2.183511972427368,337.0351759725571
1561308841055,,7.01979923248291,,
1561308841078,,,,48.317308018898416
1561308841166,,,,336.05479623230286
1561308841167,3.974374771118164,8.83939266204834,0.49799394607543945,337.20968730585093
1561308841179,-0.14365209639072418,15.80173110961914,1.522712230682373,70.76628542437061
1561308841238,,,,74.94351300753453
1561308841312,1.436521053314209,,,
1561308841313,,9.854534149169922,1.5131354331970215,26.46308811842522
1561308841314,-1.015141487121582,4.4532151222229,1.359906554222107,110.69363836873006
1561308841399,-2.1068975925445557,9.126696586608887,2.3271639347076416,110.03317273636816
1561308841460,-0.3447650372982025,7.2113356590271,-1.8291701078414917,115.0627601166255
1561308841527,-2.7006595134735107,16.002843856811523,4.63517427444458,240.3433502702723
1561308841606,0.7757213711738586,11.741165161132813,1.436521053314209,105.8487597941974
1561308841686,1.7621324062347412,4.548983097076416,-0.009576806798577309,42.221029505392664
1561308841704,,,,329.250040979212
1561308841780,0.05746084079146385,7.527369976043701,0.8619126081466675,61.82679040468537
1561308841804,3.045424461364746,8.973467826843262,2.719813108444214,15.568507797884479
1561308841868,,,,17.6659803448199
1561308841879,-0.9002198576927185,,,
1561308841880,,17.61174774169922,-0.23942017555236816,167.7274801271424
1561308841932,,,,171.64280410658216
1561308841949,0.8236053586006165,,2.3271639347076416,50.49319455260019
1561308841950,,10.716446876525879,,
1561308842009,,,,53.49597110798038
1561308842067,-2.126051187515259,,,
1561308842069,,7.029376029968262,1.647210717201233,124.11347110656607
1561308842172,-1.1204863786697388,,,100.09944123014998
1561308842173,,5.95677375793457,2.403778553009033,68.03261149209976
1561308842238,0.6991068720817566,11.425130844116211,2.1930887699127197,69.37732547551354
1561308842294,,,,62.29121594748955
1561308842304,-1.9632453918457031,,0.35434186458587646,157.46663720119398
1561308842305,,13.618219375610352,,
1561308842362,,,,156.79174620930502
1561308842376,0.6991068720817566,,,
1561308842377,,5.20978307723999,0.8619126081466675,39.83424039049925
1561308842442,,,,36.490343697401045
1561308842452,0.1628057211637497,5.9088897705078125,0.4692635238170624,55.20127809843581
1561308842538,3.734954595565796,9.959878921508789,1.5514427423477173,51.13660178750996
1561308842594,-0.3064578175544739,15.49527359008789,0.6799532771110535,4.636373389739674
1561308842678,1.8291701078414917,12.287043571472168,2.557007312774658,101.59277329971411
1561308842707,,,,47.48578712896267
1561308842804,-1.235408067703247,,,
1561308842805,,10.15141487121582,2.38462495803833,109.38446868975706
1561308842826,,,,150.84874397096357
1561308842897,,,,180.40323569926284
1561308842898,-1.091755986213684,7.086836814880371,-0.1149216815829277,182.51980204002314
1561308842949,-2.097320795059204,17.62132453918457,7.948749542236328,100.78921520424046
1561308843014,-0.6512228846549988,13.627796173095703,2.097320795059204,101.28395312658114
1561308843035,,,,100.21282237037224
1561308843111,0.871489405632019,,,
1561308843112,,8.513781547546387,0.6703764796257019,30.707813338514484
1561308843193,1.723825216293335,3.734954595565796,1.6950948238372803,37.07144253160743
1561308843214,0.3447650372982025,9.452308654785156,3.6583402156829834,67.48692035855078
1561308843280,,,,55.714375569265485
1561308843291,2.183511972427368,,,
1561308843292,,11.099518775939941,-0.13407529890537262,324.9038891574953
1561308843367,3.514688014984131,12.660538673400879,3.4093432426452637,320.61151141511414
1561308843438,-1.0630255937576294,,,7.696347656776879
1561308843439,,14.508862495422363,0.9959878921508789,
1561308843517,-1.4652514457702637,5.39174222946167,0.6033388376235962,101.24336131234372
1561308843530,,,,118.5080441377633
1561308843601,-2.4133553504943848,,,
1561308843602,,6.004657745361328,3.07415509223938,89.05194492692374
1561308843633,-1.944091796875,,,
1561308843634,,8.734047889709473,0.9289502501487732,113.89050840975455
1561308843696,,,,112.71661745748278
1561308843708,-2.5665841102600098,,,
1561308843709,,13.685256958007813,5.228936672210693,74.90554398593844
1561308843775,-1.1683704853057861,14.997279167175293,2.8347349166870117,70.22312146081458
1561308843807,,,,60.8702702227493
1561308843856,2.6815059185028076,4.912901878356934,-1.5610195398330688,282.1578435011712
1561308843933,,,,274.8687270906362
1561308843934,-0.2968810200691223,6.655880928039551,2.0877439975738525,39.092225714541996
1561308843945,,,,30.474272095318838
1561308844042,0.9768342971801758,3.667917013168335,2.097320795059204,356.0008866749171
1561308844055,1.2832920551300049,13.876792907714844,1.3886369466781616,333.97386640353716
1561308844123,,,,336.634259236203
1561308844124,4.280832767486572,10.936713218688965,3.141192674636841,
1561308844154,,,,327.7037749435803
1561308844231,-0.7086837291717529,8.379706382751465,0.9576807022094727,62.95169524022981
1561308844281,-0.49799394607543945,5.506663799285889,1.742978811264038,42.22846416630421
1561308844337,-2.1164743900299072,,2.0877439975738525,37.784797733807295
1561308844338,,7.671022415161133,,
1561308844403,,,,67.33910823472252
1561308844404,-0.35434186458587646,13.35964584350586,2.1356279850006104,29.33650259847269
1561308844475,1.2545616626739502,10.8505220413208,0.45010992884635925,24.179672209072635
1561308844537,,,,299.2786005804003
1561308844618,-2.31758713722229,10.773907661437988,-1.3311761617660522,130.51380915135323
1561308844698,0.5363011956214905,10.065223693847656,2.5953147411346436,265.83902576258254
1561308844715,,,,331.00783797343894
1561308844804,-1.0821791887283325,18.023550033569336,-1.1683704853057861,122.08005548876156
1561308844883,5.228936672210693,,,
1561308844884,,8.006210327148438,2.5761611461639404,272.681256556102
1561308844895,-2.4899697303771973,,,57.458850279516355
1561308844896,,12.48815631866455,1.1013327836990356,
1561308844927,,,,56.407096769982786
1561308845009,,,,289.6965486843569
1561308845010,1.2258312702178955,,2.518700122833252,294.77926810616776
1561308845042,-2.3080103397369385,11.070788383483887,3.064578056335449,27.219246408606296
1561308845088,,,,27.521536920892686
1561308845104,-1.5131354331970215,16.40506935119629,5.4013190269470215,4.708294427926262
1561308845166,,,,3.6358719121905665
1561308845184,1.091755986213684,12.191274642944336,1.6663644313812256,313.6601717646983
1561308845266,,,,313.77074228207704
1561308845267,0.6416460275650024,10.400412559509277,0.13407529890537262,269.4654600608875
1561308845278,,,,267.30207960355597
1561308845355,0.33518823981285095,,,
1561308845356,,5.95677375793457,-0.3064578175544739,213.2966071193439
1561308845436,1.2641384601593018,5.583278179168701,1.5897499322891235,300.9148338677794
1561308845456,2.1068975925445557,,,289.70598117560075
1561308845457,,15.121777534484863,1.8100165128707886,
1561308845543,2.1068975925445557,11.386823654174805,0.14365209639072418,292.0600058730456
1561308845572,,,,260.64433221951856
1561308845644,0.31603461503982544,10.20887565612793,2.5761611461639404,340.8345216323428
1561308845730,-1.436521053314209,5.813121795654297,1.8100165128707886,38.40979760890389
1561308845741,-1.5418659448623657,10.247182846069336,3.88818359375,21.465822900867693
1561308845821,,,,19.574690368758297
1561308845822,-0.028730420395731926,14.460978507995605,1.8100165128707886,
1561308845847,,,,351.810452920993
1561308845875,1.867477297782898,9.586383819580078,0.7086837291717529,278.2147343121879
1561308845916,,,,277.4592061069577
1561308846004,-0.3447650372982025,,,139.3270481242308
1561308846005,,10.007762908935547,-0.5363011956214905,137.73897450068947
1561308846017,-1.5897499322891235,6.512228488922119,-1.8387469053268433,132.7903521828535
1561308846047,,,,126.17136612235589
1561308846111,0.507570743560791,10.20887565612793,1.359906554222107,319.72586127600607
1561308846143,,,,315.144651909098
1561308846225,3.265691041946411,,1.6184803247451782,268.43265349611147
1561308846226,,12.631808280944824,,
1561308846254,,,,244.4034469393597
1561308846322,1.139639973640442,12.29662036895752,1.0821791887283325,299.1987556690029
1561308846333,,,,307.6172336135158
1561308846412,0.20111294090747833,4.20421838760376,2.403778553009033,347.84980807508924
1561308846494,-0.9576807022094727,8.034940719604492,3.485957622528076,23.64330940638257
1561308846517,-1.7525556087493896,15.514427185058594,0.7565677165985107,77.47851722741729
1561308846610,0.9768342971801758,12.229581832885742,0.5363011956214905,83.44464648628838
1561308846692,-0.15322890877723694,,,29.027795123461033
1561308846693,,10.247182846069336,0.727837324142456,17.655198891215036
1561308846716,0.2106897532939911,7.220912456512451,-0.06703764945268631,256.3799650829236
1561308846788,2.5665841102600098,,,247.3380718672015
1561308846789,,7.316680431365967,2.231395959854126,
1561308846879,4.941632270812988,9.002198219299316,0.9481038451194763,288.07383234134534
1561308846890,,,,260.825619100469
1561308846924,2.6623523235321045,14.068328857421875,-0.009576806798577309,262.85395305753104
1561308846977,,,,277.3246855312543
1561308846994,2.1356279850006104,12.22000503540039,1.7812861204147339,318.92744631297745
1561308847081,0.24899697303771973,4.309563159942627,2.1068975925445557,337.0026950079591
1561308847095,,,,43.855056641669876
1561308847169,-0.8523358106613159,7.326257228851318,1.8962076902389526,70.67461745551986
1561308847203,0.2777273952960968,,,
1561308847204,,11.961431503295898,1.1300631761550903,26.044122607189365
1561308847261,,,,33.62836466157148
1561308847274,0.9481038451194763,15.026009559631348,3.1316158771514893,33.28157546684247
1561308847350,,,,32.61225107912702
1561308847351,3.0550012588500977,8.255207061767578,3.332728862762451,
1561308847415,-0.3064578175544739,6.914454460144043,-0.7469909191131592,348.3835404011752
1561308847495,2.7485435009002686,3.246537446975708,1.1492167711257935,186.14420094195532
1561308847571,4.367023944854736,9.643844604492188,0.7852981686592102,269.9916510043561
1561308847666,1.1204863786697388,,-0.9289502501487732,286.1686057138836
1561308847667,,12.449849128723145,,
1561308847694,0.181959331035614,,,66.9427455269975
1561308847695,,10.342951774597168,2.298433542251587,
1561308847786,-0.26815059781074524,5.947196960449219,2.7964274883270264,66.30902691542536
1561308847877,-1.0630255937576294,7.833827972412109,2.82515811920166,78.94795046507545
1561308847903,-0.9864110946655273,,,
1561308847904,,12.114660263061523,-0.7661445140838623,169.3282032610266
1561308847972,,,,178.1904966525232
1561308847974,1.9153614044189453,,,
1561308847975,,10.754754066467285,0.1628057211637497,318.1098760844215
1561308848059,-0.019153613597154617,9.2033109664917,0.8044517636299133,325.032778242228
1561308848084,,,,54.6555664743193
1561308848152,0.6224924325942993,8.26478385925293,0.6416460275650024,5.454722259861001
1561308848164,,,,348.07701517160336
1561308848238,1.9823989868164063,4.548983097076416,0.181959331035614,282.2229078832048
1561308848265,4.20421838760376,,,
1561308848266,,6.521805286407471,-1.7142484188079834,249.05034565061032
1561308848328,4.529829502105713,10.180145263671875,0.7757213711738586,255.1590004668921
1561308848389,,,,330.1238236646371
1561308848401,-0.23942017555236816,9.806650161743164,1.4077905416488647,82.61090578487244
1561308848486,-0.5171475410461426,3.9456443786621094,1.867477297782898,85.2642088811798
1561308848506,,,,99.02319466225276
1561308848585,-1.0055646896362305,9.02135181427002,4.367023944854736,97.0791930508729
1561308848674,-1.216254472732544,14.815320014953613,3.5625722408294678,97.20523053162714
1561308848747,0.26815059781074524,,1.292868971824646,75.36621292469914
1561308848748,,9.442731857299805,,
1561308848851,,,,47.62644462963533
1561308848852,-0.14365209639072418,7.872135162353516,-0.08619125932455063,176.05669091429786
1561308848862,,,,165.03338031092258
1561308848883,1.3311761617660522,,,35.60935857749615
1561308848884,,6.110002517700195,3.112462282180786,
1561308848959,4.175487995147705,12.143390655517578,3.4380736351013184,31.851204081047513
1561308849055,,,,358.59406212185695
1561308849056,1.6855180263519287,12.162544250488281,-0.8044517636299133,288.5667944145018
1561308849066,,,,297.69500756095454
1561308849171,2.1164743900299072,,,23.98979295014624
1561308849172,,9.260771751403809,2.403778553009033,30.909809353028436
1561308849204,,,,69.16515930932542
1561308849279,-0.8427590131759644,5.506663799285889,1.9345149993896484,96.50924791558117
1561308849304,-0.9385270476341248,,,178.18260095384267
1561308849305,,12.631808280944824,-0.40222588181495667,
1561308849384,2.7772738933563232,12.162544250488281,3.265691041946411,180.402716604886
1561308849494,,,,33.218099103790905
1561308849495,,,,156.81356183351406
1561308849496,-2.432508945465088,14.748282432556152,0.019153613597154617,155.1352750714152
1561308849598,0.47884035110473633,,,243.80435738687953
1561308849599,,5.564124584197998,-1.867477297782898,
1561308849660,4.596867084503174,11.252747535705566,0.5363011956214905,28.777448199812568
1561308849746,2.8826189041137695,12.22000503540039,1.3311761617660522,310.371551792553
1561308849818,0.727837324142456,,,351.83638373417693
1561308849819,,12.105083465576172,3.2082302570343018,
1561308849877,-0.7661445140838623,6.301538944244385,2.4420857429504395,68.93242061335724
1561308849904,,,,103.69380779030172
1561308849959,-1.0342950820922852,7.508216381072998,3.6966474056243896,107.42475081309698
1561308849974,,,,104.84433949561202
1561308850068,-0.4213795065879822,9.567230224609375,-1.580173134803772,216.78501695490115
1561308850126,-0.6416460275650024,,,
1561308850127,,16.29014778137207,6.358999729156494,101.0060805405775
1561308850206,-1.455674648284912,13.675680160522461,3.600879430770874,101.96406238299596
1561308850219,0.8331822156906128,,,224.2949602114919
1561308850220,,5.420472621917725,-1.7046716213226318,
1561308850295,,,,217.81321997217657
1561308850296,1.436521053314209,5.037400245666504,1.091755986213684,309.83804571648335
1561308850327,,,,311.20829777720377
1561308850413,1.7908629179000854,,,
1561308850414,,5.410895824432373,1.292868971824646,302.1655098067004
1561308850426,0.2777273952960968,19.613300323486328,4.156333923339844,59.78575229576717
1561308850524,,,,77.29243555366946
1561308850525,1.5322890281677246,12.277466773986816,3.026270866394043,57.64387327394286
1561308850537,,,,68.6766505195078
1561308850636,-1.235408067703247,5.315127849578857,2.0877439975738525,130.69094327728834
1561308850701,,,,143.72293055329433
1561308850710,1.3311761617660522,4.855441093444824,-2.365471363067627,244.33125183983265
1561308850798,-2.0015525817871094,19.488801956176758,7.546523571014404,252.71856704625736
1561308850814,,,,136.95704078412808
1561308850899,-0.22026655077934265,11.702857971191406,1.0247182846069336,118.86232605001186
1561308850976,-0.14365209639072418,6.042964935302734,-1.3982137441635132,257.04796441394
1561308850987,0.8331822156906128,6.6846113204956055,1.7334020137786865,105.91147459115649
1561308851044,,,,101.94956872157724
1561308851075,2.365471363067627,9.27034854888916,2.8347349166870117,102.81964602937762
1561308851126,0.507570743560791,16.673221588134766,0.13407529890537262,100.95700563139098
1561308851190,,,,39.189699344187204
1561308851216,-0.689530074596405,,1.3982137441635132,144.76060021275936
1561308851217,,12.469002723693848,,
1561308851234,,,,150.39713186304232
1561308851271,-0.4884171485900879,6.311115741729736,2.2697031497955322,145.81351485445182
1561308851330,,,,146.43388727638575
1561308851343,-0.507570743560791,5.679046630859375,2.0590133666992188,147.76362948513886
1561308851394,,,,147.65427815652694
1561308851415,-0.8619126081466675,,,
1561308851416,,7.967903137207031,-1.1300631761550903,247.16661362846668
1561308851463,,,,247.93785126878782
1561308851525,-1.5514427423477173,,,
1561308851526,,15.169661521911621,4.031835556030273,151.92161642541083
1561308851546,-0.9097966551780701,,,144.81036497105205
1561308851547,,14.777012825012207,2.873042106628418,
1561308851587,,,,141.99033012691552
1561308851625,0.31603461503982544,,,289.7117117043144
1561308851626,,8.08282470703125,-1.359906554222107,
1561308851654,,,,286.13566371151666
1561308851692,0.2968810200691223,,2.0590133666992188,126.28029397923925
1561308851693,,6.71334171295166,,
1561308851731,,,,124.83058632790403
1561308851753,2.3367409706115723,,,
1561308851754,,6.617573261260986,1.9536685943603516,106.03725935491144
1561308851801,,,,100.63762598580115
1561308851860,-0.9576807022094727,16.23268699645996,-1.2258312702178955,246.5819016241894
1561308851871,,,,259.14634879112964
1561308851897,3.265691041946411,10.295066833496094,0.727837324142456,69.85987834037496
1561308851937,,,,66.43434722631679
1561308851964,-0.14365209639072418,7.8529815673828125,1.8195933103561401,138.16422207841447
1561308852011,,,,137.90057677645197
1561308852069,-0.24899697303771973,3.687070608139038,1.9057846069335938,144.7657774961502
1561308852080,,,,142.74426006787988
1561308852106,-1.3215993642807007,7.967903137207031,2.231395959854126,159.30636231451527
1561308852152,,,,162.00726499914842
1561308852192,1.0247182846069336,14.930241584777832,5.008669853210449,127.6558121158098
1561308852219,,,,127.13211419138821
1561308852264,-1.9345149993896484,,-0.1628057211637497,217.98322338061814
1561308852265,,15.275007247924805,,
1561308852320,2.0877439975738525,,0.6320692300796509,218.25649924931042
1561308852321,,7.173028469085693,,
1561308852384,0.5841852426528931,,-0.47884035110473633,72.21346590571295
1561308852385,,5.449203014373779,,
1561308852462,1.9345149993896484,4.501099109649658,0.7182605266571045,350.69990258176296
1561308852557,2.011129379272461,,,79.10016806091835
1561308852558,,16.960525512695313,-1.7046716213226318,
1561308852569,,,,354.2296256702887
1561308852630,3.2561142444610596,11.951854705810547,-0.7948749661445618,29.98208183353853
1561308852687,0.9002198576927185,,,32.67673147998653
1561308852688,,10.572794914245605,3.581725835800171,
1561308852746,,,,123.59340684278294
1561308852747,0.8523358106613159,3.3231520652770996,0.8810662031173706,98.04492715799933
1561308852809,0.08619125932455063,,,96.08868584762683
1561308852810,,7.920019149780273,1.6855180263519287,
1561308852848,,,,128.39151911206852
1561308852886,-2.557007312774658,,,168.74159929434921
1561308852887,,16.47210693359375,2.786850690841675,
1561308852965,3.3231520652770996,10.745177268981934,-0.2777273952960968,171.82413196866767
1561308852997,,,,45.22680109872397
1561308853052,-2.470816135406494,,,
1561308853053,,11.463438034057617,-0.8810662031173706,230.65655742330682
1561308853065,,,,227.441997192332
1561308853112,0.5650315880775452,,,
1561308853136,,,,6.76765366551939
1561308853153,2.1068975925445557,,,
1561308853154,,9.08838939666748,3.7158010005950928,112.4363884562155
1561308853204,,,,114.57897781771348
1561308853224,2.5953147411346436,13.838485717773438,-0.5363011956214905,26.144080718145176
1561308853275,,,,32.5885537378017
1561308853315,2.8443117141723633,10.639832496643066,-2.279279947280884,359.72564002554003
1561308853345,,,,3.1033965543552995
1561308853403,0.6033388376235962,,,
1561308853404,,12.306197166442871,2.1547815799713135,122.19308145914692
1561308853417,,,,124.90988482416788
1561308853454,0.7757213711738586,3.0358476638793945,2.011129379272461,131.1550546313907
1561308853486,,,,128.58275074845054
1561308853546,-1.5610195398330688,8.465897560119629,2.1739351749420166,169.2365694431217
1561308853558,,,,169.21876997014465
1561308853622,-1.0055646896362305,14.662091255187988,2.2888567447662354,157.79146733774147
1561308853625,,,,155.4735606806276
1561308853657,0.2298433631658554,14.192827224731445,0.05746084079146385,53.3354616624851
1561308853711,,,,51.03742402566678
1561308853723,0.2777273952960968,8.513781547546387,0.4118026793003082,95.5176683726354
1561308853777,,,,91.29478097486998
1561308853789,0.5650315880775452,5.583278179168701,0.9864110946655273,104.08588113922795
1561308853851,,,,98.97152428118159
1561308853862,1.1204863786697388,6.655880928039551,1.656787633895874,101.08640356521687
1561308853920,,,,96.62034777262062
1561308853932,4.367023944854736,8.40843677520752,-1.867477297782898,353.71560868524205
1561308854013,0.07661445438861847,,0.047884032130241394,9.703294584000275
1561308854014,,14.767436027526855,,
1561308854096,1.1109095811843872,12.832921028137207,3.6104562282562256,60.62730673359357
1561308854133,,,,114.06363321464687
1561308854210,0.19153612852096558,3.9169139862060547,1.139639973640442,120.58677123052166
1561308854306,,,,130.21199675230872
1561308854307,0.3064578175544739,10.055646896362305,-2.3367409706115723,
1561308854348,2.030282974243164,12.02846908569336,5.324704647064209,282.48066556210273
1561308854421,-0.9768342971801758,,,114.09808468882039
1561308854422,,9.02135181427002,0.2106897532939911,
1561308854514,-2.6431987285614014,,,188.32439732502348
1561308854515,,8.676587104797363,-3.1028854846954346,
1561308854580,1.7046716213226318,6.071695327758789,3.2369606494903564,225.50276988318194
1561308854611,,,,119.49872209573863
1561308854623,4.788403511047363,,,89.74074901415202
1561308854624,,7.565677165985107,0.7565677165985107,
1561308854679,,,,79.18441161414131
1561308854696,0.7374141216278076,,,
1561308854697,,17.899051666259766,-0.28730419278144836,357.43693138659137
1561308854756,,,,5.775937091903415
1561308854770,0.3926490843296051,11.769895553588867,2.365471363067627,118.4900534194895
1561308854836,-0.3064578175544739,4.989516258239746,2.6815059185028076,121.12240832561241
1561308854917,-1.7621324062347412,6.45476770401001,1.5514427423477173,140.64108089789286
1561308854984,-0.6129156351089478,7.7763671875,0.5554547905921936,173.40462408223027
1561308855024,,,,178.78804258225094
1561308855061,2.1547815799713135,11.176133155822754,3.3039982318878174,112.97529038172951
1561308855130,-2.1164743900299072,15.753847122192383,0.49799394607543945,113.80894912087541
1561308855201,1.2258312702178955,7.489062786102295,0.181959331035614,209.7735682246946
1561308855236,,,,64.9871667449745
1561308855253,1.072602391242981,,,
1561308855254,,5.449203014373779,0.7469909191131592,95.62363192741901
1561308855344,0.4884171485900879,8.35097599029541,0.8619126081466675,96.87248420583165
1561308855375,,,,118.88385480627576
1561308855394,0.28730419278144836,14.36521053314209,-0.4213795065879822,358.0463597110408
1561308855444,,,,4.462495556491376
1561308855463,2.7293899059295654,,,
1561308855465,,13.03403377532959,1.9153614044189453,104.13507216163038
1561308855518,,,,104.72787794007414
1561308855561,0.047884032130241394,,,
1561308855562,,10.02691650390625,2.0877439975738525,152.86679166313553
1561308855586,,,,152.46803155901185
1561308855659,-0.2298433631658554,4.309563159942627,1.072602391242981,164.86050822302954
1561308855673,-0.038307227194309235,,,
1561308855674,,7.642292022705078,-1.1971008777618408,326.4098502468347
1561308855743,,,,329.28576628366574
1561308855775,-0.019153613597154617,15.150507926940918,3.294421434402466,157.34615266423495
1561308855824,,,,157.97126523745288
1561308855825,-0.6416460275650024,13.713987350463867,-1.5131354331970215,
1561308855874,,,,310.7977795024239
1561308855899,1.1971008777618408,7.4316020011901855,1.3120225667953491,120.77539373464074
1561308855967,,,,123.02098234882254
