timestamp,AccX,AccY,AccZ,CompassSensor
1561305891294,,,,266.58204789144236
1561305891296,0.8523358106613159,9.624691009521484,1.3886369466781616,267.8013869224514
1561305891347,,,,266.9224508592975
1561305891379,1.0630255937576294,9.710882186889648,1.139639973640442,256.6283449120911
1561305891430,,,,252.59361556558116
1561305891439,0.7948749661445618,9.950302124023438,1.6089035272598267,266.8173069272143
1561305891486,,,,267.11034253317536
1561305891506,0.8427590131759644,9.797073364257813,1.5131354331970215,264.6286137888187
1561305891557,,,,262.7282161051003
1561305891581,,,,254.80079802605997
1561305891582,1.1204863786697388,9.605537414550781,1.5514427423477173,
1561305891633,,,,253.59902624159622
1561305891651,0.9097966551780701,9.825803756713867,1.4939818382263184,259.31914574694184
1561305891702,,,,260.639571577667
1561305891718,,,,258.1569139275833
1561305891719,1.0247182846069336,9.691728591918945,1.6089035272598267,
1561305891773,,,,255.18641684622054
1561305891786,,,,255.66616250333306
1561305891787,0.7086837291717529,9.749189376831055,0.8810662031173706,
1561305891836,,,,257.78282446674166
1561305891856,0.7948749661445618,9.797073364257813,1.015141487121582,257.28588039329907
1561305891907,,,,255.73862398023772
1561305891932,,,,269.86019718359
1561305891933,,,1.656787633895874,
1561305891934,0.6033388376235962,10.189722061157227,,
1561305891981,,,,270.53201459035245
1561305891999,,,,262.93525962941084
1561305892000,0.7757213711738586,,1.436521053314209,
1561305892001,,9.787496566772461,,
1561305892055,,,,262.86865845481407
1561305892072,0.28730419278144836,9.768342971801758,0.5937620401382446,274.1038961677565
1561305892119,,,,272.4895194857214
1561305892137,,,,259.7318735879182
1561305892139,0.5554547905921936,9.835380554199219,0.7565677165985107,
1561305892189,,,,257.7267486136559
1561305892212,,,,261.3571922330036
1561305892213,0.7086837291717529,9.825803756713867,1.4652514457702637,
1561305892267,,,,259.1907518509239
1561305892285,,,0.9385270476341248,252.12616424897465
1561305892286,0.7182605266571045,9.739612579345703,,
1561305892329,,,,252.51446733347905
1561305892365,0.5937620401382446,9.653421401977539,0.8619126081466675,256.315180738646
1561305892402,,,,252.7096126682555
1561305892417,0.3926490843296051,10.093954086303711,-0.09576806426048279,193.21642469539665
1561305892469,,,,188.37462653617968
1561305892486,0.6129156351089478,9.835380554199219,0.43095630407333374,231.55971333725756
1561305892536,,,,229.11013429332422
1561305892556,0.507570743560791,9.624691009521484,0.2298433631658554,220.63459353339044
1561305892606,,,,221.32651901706936
1561305892634,,,,176.46340135861544
1561305892635,0.7086837291717529,9.720458984375,-0.33518823981285095,
1561305892685,,,,174.03644390121315
1561305892701,0.47884035110473633,9.816226959228516,-0.08619125932455063,187.5860265549884
1561305892752,,,,184.0239189782867
1561305892769,0.3926490843296051,,0.13407529890537262,211.0016635582196
1561305892770,,9.806650161743164,,
1561305892822,,,,210.66231243949665
1561305892836,,,,161.6620125969826
1561305892838,0.4118026793003082,10.409989356994629,-0.2777273952960968,
1561305892894,,,,164.92889207699972
1561305892912,0.6129156351089478,9.394847869873047,0.4596867263317108,228.14278826155362
1561305892956,,,,225.06253687041794
1561305892985,0.3064578175544739,9.883264541625977,-1.37906014919281,129.63129406907422
1561305893032,,,,126.18624227436817
1561305893052,,,,147.3759069667139
1561305893053,0.5171475410461426,9.835380554199219,-0.5746083855628967,
1561305893104,,,,146.25581058434517
1561305893124,,,,147.1308944208072
1561305893125,0.4405331015586853,9.701305389404297,-0.4596867263317108,
1561305893172,,,,145.20249979168082
1561305893186,0.3926490843296051,9.701305389404297,-0.31603461503982544,151.19406467502108
1561305893236,,,,149.4401403980535
1561305893256,0.507570743560791,9.835380554199219,-0.07661445438861847,176.8681993499654
1561305893306,,,,178.55503750890512
1561305893337,0.40222588181495667,9.854534149169922,-0.7757213711738586,131.52286031819588
1561305893390,,,,130.79992577568507
1561305893408,,,-0.40222588181495667,147.23919390028692
1561305893409,0.4405331015586853,9.66299819946289,,
1561305893449,,,,149.2425976668784
1561305893469,0.9672574996948242,9.452308654785156,-1.072602391242981,149.01299402773924
1561305893521,,,,146.11889261224312
1561305893538,0.9672574996948242,10.065223693847656,-0.6607996821403503,155.43242928144576
1561305893587,,,,152.97413491613145
1561305893606,0.6224924325942993,9.797073364257813,-0.07661445438861847,174.5364547295931
1561305893656,,,,174.64774583192929
1561305893679,0.3256114423274994,9.806650161743164,-1.3024457693099976,119.7152937339414
1561305893739,,,,115.93669648130697
1561305893753,,,,150.3415887647118
1561305893755,0.7086837291717529,9.825803756713867,-0.43095630407333374,
1561305893810,,,,150.6068733120751
1561305893829,0.24899697303771973,,-1.3311761617660522,113.49444623035299
1561305893830,,9.84495735168457,,
1561305893868,,,,117.30651824010971
1561305893890,,,,196.2357371387575
1561305893892,,,0.20111294090747833,
1561305893893,0.6416460275650024,9.615114212036133,,
1561305893936,,,,198.32151298673932
1561305893957,0.545877993106842,9.787496566772461,-0.6799532771110535,139.17205747158488
1561305894018,,,,139.70057750956047
1561305894029,0.6129156351089478,9.701305389404297,-0.727837324142456,141.42509099196195
1561305894081,,,,144.695262623159
1561305894144,,,,152.9218976293592
1561305894145,0.5171475410461426,9.768342971801758,-0.4118026793003082,
1561305894149,,,,152.93852230979903
1561305894177,0.5841852426528931,9.730035781860352,-0.7565677165985107,142.7271299534415
1561305894216,,,,140.8903964629767
1561305894251,,,,132.30079154390367
1561305894252,0.5267243981361389,9.720458984375,-1.139639973640442,
1561305894286,,,,129.0334749317797
1561305894316,0.4596867263317108,9.710882186889648,-0.8236053586006165,130.048618627362
1561305894356,,,,134.06599929338012
1561305894386,0.6799532771110535,9.730035781860352,-0.6033388376235962,150.21301728377546
1561305894426,,,,153.01706948525415
1561305894456,0.5267243981361389,9.653421401977539,-0.8523358106613159,139.59330255845623
1561305894496,,,,141.77225584709538
1561305894526,0.47884035110473633,9.710882186889648,-0.7565677165985107,141.55989160542134
1561305894566,,,,141.74417010922826
1561305894596,,,,134.68529254542517
1561305894597,0.45010992884635925,9.787496566772461,-1.1683704853057861,
1561305894637,,,,130.0003974918217
1561305894666,0.6129156351089478,9.758766174316406,-0.7565677165985107,143.1607376827106
1561305894706,,,,140.17354078882715
1561305894736,0.47884035110473633,9.682151794433594,-0.8331822156906128,132.28225441049625
1561305894776,,,,132.88031943460092
1561305894806,0.5650315880775452,9.739612579345703,-0.8331822156906128,136.8616503621797
1561305894846,,,,137.52665124015047
1561305894876,0.4596867263317108,9.710882186889648,-0.8427590131759644,132.40497924950304
1561305894916,,,,132.75296372733686
1561305894946,0.5937620401382446,9.768342971801758,-0.7757213711738586,140.44736307265296
1561305894986,,,,144.51460411961216
1561305895016,0.4692635238170624,9.624691009521484,-0.8236053586006165,137.74132408576395
1561305895058,,,,136.23722080787877
1561305895086,0.5267243981361389,9.787496566772461,-0.8810662031173706,137.7158064990248
1561305895127,,,,135.59903525258946
1561305895156,0.4596867263317108,9.710882186889648,-0.7469909191131592,135.15116608833338
1561305895199,,,,136.48697350506947
1561305895226,0.5171475410461426,9.739612579345703,-1.0534487962722778,133.88472607280795
1561305895267,,,,135.0480712130012
1561305895296,0.49799394607543945,9.739612579345703,-1.0055646896362305,134.84462719838322
1561305895336,,,,132.10645900163846
1561305895366,0.4692635238170624,9.768342971801758,-0.8906430602073669,132.47307623552805
1561305895406,,,,137.02886705343994
1561305895436,0.4692635238170624,9.720458984375,-0.7852981686592102,139.11253920315738
1561305895476,,,,138.6525532833137
1561305895506,0.5650315880775452,9.710882186889648,-0.9481038451194763,139.81421819697113
1561305895546,,,,140.68792233522083
1561305895576,0.4596867263317108,9.749189376831055,-0.7948749661445618,138.86835994032944
1561305895616,,,,142.1554021387764
1561305895646,0.43095630407333374,9.691728591918945,-0.9193734526634216,138.4448062495186
1561305895686,,,,138.63336045174597
1561305895716,0.43095630407333374,9.758766174316406,-0.6991068720817566,143.10802228269642
1561305895756,,,,143.7329572709959
1561305895786,0.4884171485900879,9.701305389404297,-0.7469909191131592,145.4955285674527
1561305895826,,,,144.1362936018635
1561305895856,0.45010992884635925,9.710882186889648,-0.9289502501487732,138.54786014371575
1561305895896,,,,137.75986121917137
1561305895926,0.5267243981361389,9.682151794433594,-0.8619126081466675,142.41723061041967
1561305895966,,,,142.06087232066344
1561305895996,0.38307225704193115,9.77791976928711,-0.9481038451194763,133.92914962316974
1561305896036,,,,134.63543216448406
1561305896066,0.5554547905921936,9.730035781860352,-0.8619126081466675,144.00105585629726
1561305896106,,,,143.47704374317388
1561305896136,0.4596867263317108,9.710882186889648,-1.0438719987869263,136.4034402915202
1561305896176,,,,135.92117429460396
1561305896206,0.507570743560791,9.739612579345703,-0.8427590131759644,141.2982407186965
1561305896246,,,,141.31218796498166
1561305896276,0.5363011956214905,9.691728591918945,-0.9097966551780701,141.29410162405946
1561305896316,,,,140.55403696711022
1561305896346,0.49799394607543945,9.720458984375,-0.9097966551780701,138.84864801438476
1561305896386,,,,138.38237832050467
1561305896416,0.5171475410461426,9.720458984375,-0.8331822156906128,140.77843600210184
1561305896456,,,,140.44725378962625
1561305896486,0.507570743560791,9.653421401977539,-0.9002198576927185,138.7017716264728
1561305896526,,,,140.2613360404185
1561305896556,0.4692635238170624,9.691728591918945,-0.8619126081466675,139.19193332206962
1561305896596,,,,140.13667142768745
1561305896626,0.45010992884635925,9.739612579345703,-0.9959878921508789,137.14996630742425
1561305896666,,,,135.81001979605117
1561305896696,0.5554547905921936,9.682151794433594,-1.0438719987869263,139.57651395347634
1561305896736,,,,136.16055876463454
1561305896766,0.43095630407333374,9.710882186889648,-0.8619126081466675,133.35553667629372
1561305896806,,,,134.86927052090863
1561305896836,0.49799394607543945,9.672574996948242,-1.158793568611145,134.06860842564305
1561305896877,,,,134.44508845269414
1561305896906,0.47884035110473633,9.720458984375,-1.0630255937576294,134.6206379747418
1561305896946,,,,132.85215173446377
1561305896976,0.6320692300796509,9.77791976928711,-0.6129156351089478,149.6182307504724
1561305897016,,,,154.12230337598893
1561305897046,0.43095630407333374,9.634267807006836,-1.1204863786697388,134.64555450483402
1561305897086,,,,131.9224537053983
1561305897116,0.5746083855628967,,-0.5746083855628967,150.44734741382027
1561305897117,,9.730035781860352,,
1561305897156,,,,151.0250311534416
1561305897186,0.38307225704193115,9.730035781860352,-1.158793568611145,130.24280090546546
1561305897226,,,,129.23761562569302
1561305897256,0.6033388376235962,9.66299819946289,-0.6224924325942993,149.1940350218796
1561305897296,,,,152.05011960445546
1561305897326,0.5171475410461426,9.682151794433594,-0.8810662031173706,141.1330184426739
1561305897366,,,,142.07255194414415
1561305897396,0.5363011956214905,9.758766174316406,-1.3120225667953491,137.50560059712848
1561305897436,,,,135.90639376524004
1561305897466,0.5363011956214905,9.605537414550781,-0.6991068720817566,145.879849651671
1561305897506,,,,145.9159540316237
1561305897536,0.5746083855628967,9.653421401977539,-0.7948749661445618,144.95151766043955
1561305897576,,,,146.73728427931772
1561305897606,0.5171475410461426,9.825803756713867,-0.9672574996948242,140.53043183333867
1561305897646,,,,138.20648728899852
1561305897676,0.545877993106842,9.682151794433594,-0.8906430602073669,140.92096838970167
1561305897716,,,,141.05392485208512
1561305897746,0.5841852426528931,9.672574996948242,-0.8331822156906128,143.99261374248312
1561305897786,,,,144.11637677024373
1561305897816,0.545877993106842,9.77791976928711,-1.139639973640442,137.38129115423425
1561305897856,,,,140.1692514300284
1561305897886,0.5267243981361389,9.787496566772461,-0.7757213711738586,145.72300118757082
1561305897926,,,,145.74592330242538
1561305897956,0.6129156351089478,9.643844604492188,-0.871489405632019,147.25543609013323
1561305897996,,,,147.1285038545977
1561305898026,0.49799394607543945,9.77791976928711,-0.9672574996948242,140.41759710825005
1561305898066,,,,142.752620219424
1561305898096,0.5363011956214905,9.66299819946289,-0.727837324142456,149.7776063845655
1561305898136,,,,147.10421570190914
1561305898166,0.6512228846549988,9.682151794433594,-0.871489405632019,148.37729466130781
1561305898206,,,,148.16116015521195
1561305898236,0.4884171485900879,9.77791976928711,-0.9768342971801758,139.51695470391383
1561305898276,,,,141.24986931899446
1561305898306,0.545877993106842,9.66299819946289,-0.727837324142456,149.15586792479758
1561305898346,,,,149.3140004644617
1561305898376,0.545877993106842,9.682151794433594,-0.7948749661445618,147.48570908781105
1561305898416,,,,144.07381103133622
1561305898446,0.5937620401382446,9.739612579345703,-0.8140285611152649,145.68107748644528
1561305898486,,,,145.34612500954785
1561305898516,0.4692635238170624,9.672574996948242,-0.7852981686592102,140.2851870610002
1561305898556,,,,141.09220123219387
1561305898586,0.6033388376235962,9.710882186889648,-0.8044517636299133,146.79239024554138
1561305898626,,,,149.95862005794916
1561305898656,0.5267243981361389,9.720458984375,-0.8140285611152649,146.357525761465
1561305898696,,,,144.7599308542207
1561305898726,0.5841852426528931,9.710882186889648,-0.8906430602073669,145.56940389351558
1561305898766,,,,146.29560326644966
1561305898796,0.5746083855628967,9.701305389404297,-1.015141487121582,143.66399968113546
1561305898836,,,,142.3935161936214
1561305898866,0.545877993106842,9.758766174316406,-0.8523358106613159,144.17510273672752
1561305898906,,,,145.12510008800623
1561305898936,0.5554547905921936,9.758766174316406,-0.8523358106613159,145.54349015580456
1561305898976,,,,145.2112970753318
1561305899006,0.5267243981361389,9.653421401977539,-0.8331822156906128,144.41858532026012
1561305899046,,,,145.05107449778166
1561305899076,0.5554547905921936,9.739612579345703,-0.8810662031173706,145.23809873763494
1561305899116,,,,143.161639267681
1561305899146,0.5363011956214905,9.701305389404297,-0.6703764796257019,147.71517612316677
1561305899186,,,,149.0631822577605
1561305899216,0.45010992884635925,9.739612579345703,-0.9193734526634216,138.99652160991553
1561305899256,,,,136.39562655510971
1561305899285,,,,149.9050167333429
1561305899286,0.6512228846549988,9.768342971801758,-0.7182605266571045,
1561305899326,,,,150.21676022744063
1561305899356,0.5171475410461426,9.691728591918945,-0.8331822156906128,141.31795264464114
1561305899396,,,,141.38796208363377
1561305899426,0.47884035110473633,9.720458984375,-1.0342950820922852,136.27456828226042
1561305899466,,,,136.41789297180395
1561305899496,0.5937620401382446,9.749189376831055,-0.5554547905921936,154.08533839220084
1561305899536,,,,156.69164295682933
1561305899566,0.5171475410461426,,-0.8044517636299133,144.7528001367272
1561305899567,,9.682151794433594,,
1561305899606,,,,143.85159765687902
1561305899636,0.5746083855628967,9.797073364257813,-0.871489405632019,144.80438172533914
1561305899677,,,,145.61250238717835
1561305899706,0.545877993106842,9.653421401977539,-0.7086837291717529,148.6730828335044
1561305899746,,,,148.52146629430845
1561305899776,,,,141.40569325471913
1561305899777,0.4884171485900879,9.739612579345703,-0.8810662031173706,
1561305899816,,,,141.2037792024752
1561305899846,0.5171475410461426,,-0.8331822156906128,143.55314571090616
1561305899847,,9.730035781860352,,
1561305899886,,,,143.48911951762645
1561305899916,0.38307225704193115,9.768342971801758,-0.6991068720817566,139.72508422830248
1561305899956,,,,138.80612325661227
1561305899986,0.5650315880775452,9.672574996948242,-0.6991068720817566,148.490634820395
1561305900026,,,,148.8667733379876
1561305900056,0.3734954595565796,9.806650161743164,-0.9385270476341248,134.3097824052362
1561305900096,,,,135.26660994568493
1561305900126,0.4596867263317108,9.787496566772461,-0.8906430602073669,140.18304841215183
1561305900166,,,,141.41686744420127
1561305900196,0.5554547905921936,9.682151794433594,-0.6799532771110535,151.43135910716566
1561305900236,,,,151.45381676915667
1561305900266,,,-0.5937620401382446,151.1749264849667
1561305900267,0.4884171485900879,9.672574996948242,,
1561305900306,,,,150.9839407353948
1561305900336,0.49799394607543945,9.77791976928711,-0.727837324142456,146.93944421837176
1561305900376,,,,145.18438613000197
1561305900406,0.5554547905921936,9.749189376831055,-0.4692635238170624,158.18275521491316
1561305900446,,,,159.71113298510855
1561305900476,0.47884035110473633,9.720458984375,-0.8140285611152649,143.64118684930762
1561305900516,,,,142.22955067240605
1561305900546,0.4596867263317108,9.768342971801758,-0.6991068720817566,144.12220975179494
1561305900586,,,,144.76565455274516
1561305900616,0.47884035110473633,9.739612579345703,-0.9959878921508789,139.62436625880147
1561305900656,,,,138.38785613221904
1561305900686,0.5363011956214905,9.758766174316406,-0.727837324142456,146.66853159513238
1561305900726,,,,146.6190537047848
1561305900756,0.47884035110473633,9.758766174316406,-0.7469909191131592,143.27487014374148
1561305900797,,,,142.56936624399253
1561305900826,0.507570743560791,9.682151794433594,-0.727837324142456,144.56660917995265
1561305900867,,,,145.2046717918369
1561305900896,0.4596867263317108,9.720458984375,-0.5841852426528931,147.3237516422117
1561305900936,,,,146.73889620396184
1561305900966,0.5267243981361389,9.749189376831055,-0.9097966551780701,141.46286193807214
1561305901006,,,,141.88801389314875
1561305901036,0.507570743560791,9.77791976928711,-0.8044517636299133,143.16857873987774
1561305901077,,,,144.363219806848
1561305901106,0.507570743560791,9.730035781860352,-0.6224924325942993,149.68253015131893
1561305901146,,,,150.22372702039405
1561305901176,0.507570743560791,9.749189376831055,-0.9481038451194763,141.85009268287683
1561305901216,,,,142.954056158426
1561305901247,0.43095630407333374,9.749189376831055,-0.727837324142456,143.9563590983687
1561305901286,,,,142.1429028925953
1561305901316,0.5650315880775452,9.739612579345703,-0.6799532771110535,150.37467420105133
1561305901356,,,,151.755902375768
1561305901386,0.4884171485900879,9.758766174316406,-0.5363011956214905,153.3661877744902
1561305901426,,,,154.3186303334918
1561305901456,0.4213795065879822,9.730035781860352,-0.7757213711738586,142.79500837341308
1561305901496,,,,143.0675739024316
1561305901526,0.507570743560791,9.816226959228516,-0.6320692300796509,151.84685317475586
1561305901566,,,,151.22440437531426
1561305901596,0.4884171485900879,9.77791976928711,-0.9864110946655273,141.62297523259556
1561305901636,,,,141.35805951544745
1561305901666,0.4884171485900879,9.749189376831055,-0.5650315880775452,152.4988357121686
1561305901706,,,,154.16436368089788
1561305901736,0.4596867263317108,9.768342971801758,-0.363918662071228,163.292351431108
1561305901776,,,,160.4336303955125
1561305901806,0.5746083855628967,9.691728591918945,-0.9959878921508789,144.04771970870678
1561305901846,,,,145.1507132973938
1561305901876,0.49799394607543945,9.77791976928711,-0.5841852426528931,152.32194747304362
1561305901916,,,,152.3110191703716
1561305901946,0.49799394607543945,9.768342971801758,-0.6033388376235962,151.57854968377944
1561305901986,,,,150.45748341454856
1561305902016,0.5171475410461426,9.806650161743164,-0.7374141216278076,147.13332596815172
1561305902057,,,,148.86270254524229
1561305902086,0.5841852426528931,9.730035781860352,-0.43095630407333374,164.5229192931125
1561305902126,,,,167.74067605261888
1561305902156,0.4692635238170624,9.739612579345703,-0.727837324142456,149.98584519198084
1561305902196,,,,148.48892727310252
1561305902226,,,,157.28720813169775
1561305902227,0.6129156351089478,9.749189376831055,-0.6607996821403503,
1561305902266,,,,156.6947711834692
1561305902296,0.5171475410461426,9.758766174316406,-0.6607996821403503,152.2902007537814
1561305902336,,,,149.42772311414242
1561305902366,0.5363011956214905,9.739612579345703,-0.5171475410461426,156.13767363400626
1561305902406,,,,157.75723442962135
1561305902436,0.5746083855628967,9.720458984375,-0.7182605266571045,151.91318797197505
1561305902476,,,,151.7094297686552
1561305902506,0.5650315880775452,9.806650161743164,-0.6416460275650024,153.74813195287732
1561305902546,,,,154.2161501751849
1561305902576,0.545877993106842,9.682151794433594,-0.5841852426528931,155.50064921087585
1561305902616,,,,156.89549678279752
1561305902646,0.4884171485900879,9.720458984375,-0.6607996821403503,151.2459467919565
1561305902687,,,,152.0003685065411
1561305902716,0.5267243981361389,9.835380554199219,-0.6512228846549988,154.1934466263838
1561305902756,,,,152.526170129227
1561305902786,0.5267243981361389,9.758766174316406,-0.7374141216278076,149.89102850592272
1561305902826,,,,148.88559733934017
1561305902856,0.5554547905921936,9.710882186889648,-0.7182605266571045,150.80285876011942
1561305902896,,,,152.12447304376022
1561305902926,0.4213795065879822,9.77791976928711,-0.45010992884635925,155.66334431690555
1561305902966,,,,156.6844985789575
1561305902996,0.49799394607543945,9.691728591918945,-0.6703764796257019,151.7818844153707
1561305903036,,,,151.2196369032736
1561305903066,0.4596867263317108,9.758766174316406,-0.6607996821403503,149.48312960868955
1561305903107,,,,149.39430982872273
1561305903136,0.545877993106842,9.701305389404297,-0.3926490843296051,166.15448756128848
1561305903176,,,,165.22405187179265
1561305903206,0.4405331015586853,9.768342971801758,-0.6416460275650024,148.0696492807121
1561305903246,,,,147.3507445498116
1561305903276,0.40222588181495667,9.768342971801758,-0.8331822156906128,140.46779899864964
1561305903316,,,,142.94110611975964
1561305903346,0.45010992884635925,9.749189376831055,-0.6703764796257019,149.61004818384674
1561305903386,,,,149.13309607410474
1561305903416,0.43095630407333374,9.691728591918945,-0.4405331015586853,157.8170122452373
1561305903456,,,,158.90588100272075
1561305903486,0.5363011956214905,9.816226959228516,-0.545877993106842,159.44965968330212
1561305903526,,,,158.5366956177032
1561305903556,0.4596867263317108,9.739612579345703,-0.5937620401382446,152.46762174766167
1561305903596,,,,151.78146094364217
1561305903626,0.4405331015586853,9.749189376831055,-0.545877993106842,152.62948357061262
1561305903666,,,,151.62483104559544
1561305903696,,,,152.3394873988322
1561305903698,0.4596867263317108,9.758766174316406,-0.5554547905921936,
1561305903736,,,,153.3468036976257
1561305903766,0.4405331015586853,9.84495735168457,-0.6991068720817566,147.26570869464493
1561305903806,,,,146.9643334277073
1561305903836,0.47884035110473633,9.720458984375,-0.6703764796257019,149.93793824514236
1561305903877,,,,149.83312216213935
1561305903906,0.47884035110473633,9.749189376831055,-0.4884171485900879,157.13693030957913
1561305903946,,,,157.04962683160804
1561305903976,0.45010992884635925,9.730035781860352,-0.6224924325942993,149.82160646319872
1561305904017,,,,148.27928144671813
1561305904046,0.40222588181495667,9.730035781860352,-0.4405331015586853,153.2861242970393
1561305904086,,,,152.3865474022136
1561305904115,,,,142.68278836534978
1561305904116,0.43095630407333374,9.643844604492188,-0.7469909191131592,
1561305904156,,,,143.0409498250469
1561305904186,0.4692635238170624,9.873687744140625,-0.31603461503982544,164.9382357757843
1561305904226,,,,168.67376185551265
1561305904256,0.45010992884635925,9.739612579345703,-0.727837324142456,148.15192573945407
1561305904296,,,,147.04818082995837
1561305904326,0.4596867263317108,9.768342971801758,-0.5171475410461426,154.9630996628175
1561305904366,,,,156.5107112457157
1561305904396,0.4213795065879822,9.768342971801758,-0.40222588181495667,160.3355078978961
1561305904436,,,,158.74156031166856
1561305904466,0.49799394607543945,9.797073364257813,-0.2968810200691223,170.37319488328185
1561305904506,,,,171.08143085869884
1561305904536,0.40222588181495667,9.730035781860352,-0.6703764796257019,146.48310561954486
1561305904576,,,,146.1670454458917
1561305904606,0.4692635238170624,9.84495735168457,-0.4118026793003082,161.38200216176878
1561305904646,,,,162.73203003235682
1561305904676,0.4884171485900879,9.710882186889648,-0.4405331015586853,162.14403270708877
1561305904717,,,,163.06374499958767
1561305904746,0.40222588181495667,9.682151794433594,-0.3447650372982025,164.03931457911892
1561305904786,,,,162.71806912569332
1561305904816,0.4692635238170624,9.911994934082031,-0.507570743560791,157.2449019399787
1561305904856,,,,155.51420030618917
1561305904886,0.45010992884635925,9.873687744140625,-0.26815059781074524,169.7579587636038
1561305904926,,,,169.79870767219208
1561305904955,,,,158.51694271062354
1561305904956,0.4884171485900879,9.787496566772461,-0.4692635238170624,
1561305904996,,,,160.56494761249516
1561305905026,0.5171475410461426,9.758766174316406,-0.3926490843296051,166.37793036979627
1561305905066,,,,169.10269773538946
1561305905096,0.5650315880775452,9.691728591918945,-0.31603461503982544,176.20266571723937
1561305905136,,,,173.49496016419286
1561305905175,0.5171475410461426,9.720458984375,-0.35434186458587646,168.86349085027726
1561305905207,,,,171.14236980647368
1561305905250,0.45010992884635925,,-0.26815059781074524,174.28648346634895
1561305905251,,9.768342971801758,,
1561305905277,,,,173.43143940491174
1561305905316,0.6033388376235962,9.873687744140625,0.047884032130241394,205.2370522006206
1561305905347,,,,203.606385517415
1561305905386,0.49799394607543945,9.835380554199219,-0.13407529890537262,186.10987241118687
1561305905416,,,,184.02775754460015
1561305905456,0.5554547905921936,9.720458984375,-0.047884032130241394,193.06363336366348
1561305905486,,,,191.10638801548293
1561305905527,,,,182.0928195942489
1561305905528,0.49799394607543945,9.835380554199219,-0.13407529890537262,
1561305905556,,,,181.85727369053188
1561305905596,0.43095630407333374,9.883264541625977,-0.4596867263317108,153.8473472807609
1561305905626,,,,154.8764382226284
1561305905666,0.4692635238170624,9.730035781860352,-0.3064578175544739,166.77144488863738
1561305905698,,,,167.53967724572374
1561305905739,0.5171475410461426,,-0.3447650372982025,167.20501163677145
1561305905740,,9.710882186889648,,
1561305905766,,,,165.73773673889096
1561305905806,0.6129156351089478,9.797073364257813,-0.23942017555236816,176.72826243425018
1561305905836,,,,178.71434484110648
1561305905877,0.4692635238170624,9.749189376831055,-0.3064578175544739,168.11960128739284
1561305905906,,,,170.37076333593734
1561305905946,0.6129156351089478,9.66299819946289,-0.3256114423274994,175.10536850632013
1561305905976,,,,179.736646574939
1561305906016,0.507570743560791,9.84495735168457,-0.23942017555236816,182.16894888273794
1561305906046,,,,183.77377013012415
1561305906086,0.507570743560791,9.911994934082031,-0.2298433631658554,184.5770823387876
1561305906116,,,,182.85616153588956
1561305906156,0.5554547905921936,9.873687744140625,0.14365209639072418,218.15502995900067
1561305906186,,,,218.57370689474408
1561305906226,0.5267243981361389,9.84495735168457,-0.20111294090747833,186.5617850474316
1561305906256,,,,186.71461736029983
1561305906296,0.5841852426528931,9.66299819946289,0.2298433631658554,224.71807677019592
1561305906326,,,,229.43428141095467
1561305906366,0.6033388376235962,9.77791976928711,-0.2298433631658554,191.09473571275896
1561305906396,,,,191.74550247649938
1561305906436,0.6799532771110535,9.66299819946289,0.20111294090747833,225.0043983002028
1561305906466,,,,225.6584435547449
1561305906506,,,0.019153613597154617,212.4356344537071
1561305906507,0.6799532771110535,9.825803756713867,,
1561305906536,,,,211.9982427996378
1561305906585,0.6320692300796509,9.988609313964844,-0.047884032130241394,206.8569135245591
1561305906608,,,,204.30537341669583
1561305906648,0.5363011956214905,9.892841339111328,0.1149216815829277,219.76938615046822
1561305906677,,,,219.05634172187558
1561305906716,0.6991068720817566,9.691728591918945,0.3256114423274994,229.29420789145604
1561305906747,,,,229.1155574635252
1561305906786,0.5650315880775452,9.672574996948242,0.3926490843296051,238.8343838976981
1561305906816,,,,235.23685495996068
1561305906856,0.6607996821403503,9.739612579345703,0.4405331015586853,233.3850540721868
1561305906886,,,,236.03231245107872
1561305906926,0.5650315880775452,9.950302124023438,0.24899697303771973,228.39688495905648
1561305906957,,,,233.1717882455423
1561305906996,0.6320692300796509,9.921571731567383,0.38307225704193115,239.1524384865889
1561305907026,,,,239.9792602063756
1561305907066,0.6799532771110535,9.720458984375,0.3256114423274994,234.49689958603818
1561305907096,,,,233.75566013655168
1561305907136,0.6129156351089478,9.586383819580078,0.6799532771110535,253.35642475246652
1561305907167,,,,250.63649999099488
1561305907206,0.6512228846549988,9.835380554199219,0.3256114423274994,232.50904132999767
1561305907236,,,,233.0611528413665
1561305907276,0.7469909191131592,9.835380554199219,0.4118026793003082,234.25493330450126
1561305907307,,,,236.75414050294398
1561305907346,0.7086837291717529,9.979032516479492,0.6703764796257019,249.4508269624049
1561305907376,,,,248.91799024487386
1561305907416,0.6991068720817566,9.77791976928711,0.727837324142456,251.00800081014108
1561305907447,,,,251.42079012281994
1561305907486,0.6320692300796509,9.84495735168457,0.38307225704193115,239.60869512314576
1561305907516,,,,238.79767846109843
1561305907556,0.7469909191131592,9.835380554199219,0.5937620401382446,243.812130142155
1561305907586,,,,245.72353809081557
1561305907626,0.7469909191131592,9.864110946655273,0.545877993106842,243.83115904918265
1561305907656,,,,245.5557135127192
1561305907699,,,,256.6032507970805
1561305907700,0.5841852426528931,9.806650161743164,0.6320692300796509,
1561305907726,,,,256.04583905891576
1561305907766,0.545877993106842,9.873687744140625,0.8044517636299133,263.32895173317036
1561305907796,,,,261.13844859464473
1561305907836,0.727837324142456,9.749189376831055,0.7565677165985107,251.02840258519188
1561305907866,,,,249.41026246892415
1561305907906,0.4884171485900879,9.806650161743164,0.507570743560791,252.73937180246924
1561305907936,,,,254.9906158132838
1561305907976,0.5171475410461426,9.883264541625977,0.5267243981361389,254.15814552705348
1561305908006,,,,251.55455254752547
1561305908046,0.5554547905921936,9.921571731567383,0.4692635238170624,246.60926336200447
1561305908076,,,,248.72278343839486
1561305908116,0.5267243981361389,9.825803756713867,0.6799532771110535,258.95530156985524
1561305908146,,,,258.0020462183424
1561305908186,0.5267243981361389,9.797073364257813,0.3926490843296051,244.98317973573205
1561305908216,,,,246.5601543018721
1561305908256,0.5841852426528931,9.758766174316406,0.49799394607543945,249.1909792456209
1561305908286,,,,248.39762545276722
1561305908326,0.5267243981361389,9.873687744140625,0.4405331015586853,248.60070746735926
1561305908356,,,,249.98604058576706
1561305908396,0.49799394607543945,9.911994934082031,0.06703764945268631,220.66337595055285
1561305908426,,,,223.03928457409847
1561305908466,0.47884035110473633,9.787496566772461,0.8236053586006165,269.30311329450547
1561305908496,,,,270.53696647750075
1561305908536,0.507570743560791,9.835380554199219,0.38307225704193115,250.80735717308278
1561305908566,,,,250.87169755506432
1561305908606,0.49799394607543945,9.720458984375,0.5363011956214905,259.8190541224842
1561305908636,,,,260.0234748541535
1561305908676,0.4213795065879822,9.864110946655273,0.363918662071228,255.40057742764628
1561305908706,,,,254.14617220543846
1561305908746,0.4213795065879822,9.873687744140625,0.31603461503982544,250.54670349397674
1561305908776,,,,252.74006848176458
1561305908816,,,0.38307225704193115,261.3152548714997
1561305908817,0.3734954595565796,9.77791976928711,,
1561305908846,,,,260.7768583799843
1561305908886,0.5650315880775452,9.873687744140625,0.43095630407333374,251.1768294260454
1561305908916,,,,250.1905706004631
1561305908956,0.3734954595565796,9.682151794433594,0.5171475410461426,267.1455726489143
1561305908986,,,,268.16060023128074
1561305909026,0.33518823981285095,9.758766174316406,0.33518823981285095,260.5363537589298
1561305909056,,,,260.80312728753216
1561305909096,0.47884035110473633,9.979032516479492,0.3734954595565796,252.90664996543205
1561305909126,,,,253.65147526423277
1561305909166,0.43095630407333374,9.940725326538086,0.33518823981285095,254.05753001039
1561305909196,,,,253.67485500176167
1561305909236,0.507570743560791,9.749189376831055,0.2777273952960968,244.42799463923672
1561305909267,,,,242.8629387531983
1561305909306,0.4405331015586853,9.854534149169922,0.40222588181495667,255.99496780997748
1561305909336,,,,255.340744970517
1561305909376,0.4884171485900879,9.873687744140625,0.4596867263317108,255.54356060773137
1561305909407,,,,256.13443344264
1561305909446,0.4118026793003082,9.77791976928711,0.20111294090747833,241.1635057254291
1561305909477,,,,242.06275477117464
1561305909516,0.45010992884635925,9.787496566772461,0.4596867263317108,259.613834258682
1561305909547,,,,257.38501375891263
1561305909586,0.4884171485900879,9.892841339111328,0.3734954595565796,249.73539313379513
1561305909616,,,,250.03313474009428
1561305909656,0.4692635238170624,9.701305389404297,0.4405331015586853,255.2707970032269
1561305909686,,,,254.8344025567764
1561305909726,0.38307225704193115,9.835380554199219,0.4692635238170624,262.6653783647361
1561305909756,,,,260.7855873617436
1561305909796,0.5554547905921936,9.940725326538086,0.5841852426528931,254.8787646354357
1561305909826,,,,256.1033697422948
1561305909866,0.4692635238170624,9.84495735168457,0.4405331015586853,254.36974478754047
1561305909896,,,,255.2638028895168
1561305909936,,,,254.3262706334733
1561305909937,0.507570743560791,9.701305389404297,0.4692635238170624,
1561305909966,,,,254.94875358386076
1561305910006,0.49799394607543945,9.911994934082031,0.4596867263317108,255.16214235391033
1561305910036,,,,252.01437454282905
1561305910076,0.4884171485900879,9.825803756713867,0.33518823981285095,244.79230326918685
1561305910106,,,,244.25084685292325
1561305910146,0.45010992884635925,9.854534149169922,0.4596867263317108,254.58145333105415
1561305910176,,,,257.8317627721448
1561305910216,,,0.4405331015586853,251.85673377678518
1561305910217,0.5267243981361389,9.720458984375,,
1561305910246,,,,253.1199431128332
1561305910286,0.4884171485900879,9.835380554199219,0.5554547905921936,261.28153422756736
1561305910316,,,,263.60574514928516
1561305910356,0.4692635238170624,9.816226959228516,0.3256114423274994,251.40521046132312
1561305910387,,,,250.95172005138016
1561305910426,,,,270.47523522778215
1561305910427,0.40222588181495667,9.787496566772461,0.5937620401382446,
1561305910456,,,,269.51149553589335
1561305910496,,,,257.9844311604729
1561305910497,0.5363011956214905,9.787496566772461,0.5267243981361389,
1561305910526,,,,256.52742886710416
1561305910566,0.5554547905921936,9.90241813659668,0.47884035110473633,253.12663669821978
1561305910596,,,,252.4680835188255
1561305910636,0.4405331015586853,9.797073364257813,0.33518823981285095,250.53936104061899
1561305910667,,,,250.26536117187476
1561305910706,,,,257.24011812585996
1561305910707,0.507570743560791,9.816226959228516,0.5267243981361389,
1561305910736,,,,258.76060019737486
1561305910776,0.5171475410461426,9.816226959228516,0.4692635238170624,255.32719387520365
1561305910806,,,,257.27155748660954
1561305910846,0.4884171485900879,,0.45010992884635925,258.02668271067864
1561305910847,,9.873687744140625,,
1561305910877,,,,258.63211750889775
1561305910916,0.507570743560791,9.835380554199219,0.5554547905921936,262.6511715712625
1561305910946,,,,261.7395393925517
1561305910986,0.545877993106842,9.816226959228516,0.545877993106842,259.0339375377696
1561305911016,,,,259.3254978228699
1561305911056,0.5267243981361389,9.816226959228516,0.31603461503982544,247.06282207383913
1561305911086,,,,245.4494562598013
1561305911125,,,,275.1738657918065
1561305911126,0.3447650372982025,9.892841339111328,0.6607996821403503,
1561305911156,,,,272.8634108710771
1561305911195,,,,235.39136749936472
1561305911196,0.6224924325942993,9.701305389404297,0.26815059781074524,
1561305911226,,,,236.7251668404848
1561305911265,,,,251.81308203779963
1561305911266,0.45010992884635925,9.758766174316406,0.35434186458587646,
1561305911296,,,,253.43506755057007
1561305911335,,,,272.41108842348217
1561305911336,0.4213795065879822,9.825803756713867,0.7182605266571045,
1561305911366,,,,270.27738513809436
1561305911405,,,,262.13099802445265
1561305911406,0.47884035110473633,9.825803756713867,0.5841852426528931,
1561305911436,,,,262.6518887411254
1561305911476,0.43095630407333374,9.84495735168457,0.3734954595565796,254.65560186468383
1561305911506,,,,254.441598377609
1561305911546,0.40222588181495667,9.806650161743164,0.28730419278144836,249.79386638327958
1561305911576,,,,251.20152055989502
1561305911615,,,,268.56360188287897
1561305911616,0.4884171485900879,9.806650161743164,0.7374141216278076,
1561305911646,,,,268.3265396771662
1561305911686,0.4692635238170624,9.835380554199219,0.43095630407333374,256.8353679458342
1561305911716,,,,255.1308054459983
1561305911756,0.4118026793003082,9.806650161743164,0.5746083855628967,266.08110815733534
1561305911786,,,,267.97783119928033
1561305911826,0.4692635238170624,9.873687744140625,0.5554547905921936,263.332271205107
1561305911856,,,,263.4030387950975
1561305911896,0.45010992884635925,9.883264541625977,0.5554547905921936,264.66341360263993
1561305911926,,,,262.62445187122944
1561305911966,0.4118026793003082,9.749189376831055,0.6703764796257019,269.3471543542737
1561305911996,,,,270.9641743195175
1561305912036,0.4213795065879822,9.816226959228516,0.6320692300796509,269.08278505225917
1561305912066,,,,270.6862197712438
1561305912106,0.47884035110473633,9.873687744140625,0.3926490843296051,254.98290452971082
1561305912136,,,,256.0376701526684
1561305912176,0.45010992884635925,9.835380554199219,0.8331822156906128,275.6278411451806
1561305912206,,,,275.37311607027414
1561305912246,0.45010992884635925,9.739612579345703,0.6320692300796509,269.6056975049262
1561305912276,,,,267.4690299174386
1561305912316,0.38307225704193115,9.873687744140625,0.3256114423274994,255.68714484446332
1561305912346,,,,254.2786778753367
1561305912386,0.4692635238170624,9.84495735168457,0.6512228846549988,265.62412069053727
1561305912416,,,,265.7766046637578
1561305912456,0.38307225704193115,9.787496566772461,0.545877993106842,267.50748388246575
1561305912486,,,,268.2321942741608
1561305912526,0.5554547905921936,9.84495735168457,0.5746083855628967,258.3743871507565
1561305912556,,,,258.3972819448544
1561305912596,0.4118026793003082,9.864110946655273,0.6607996821403503,270.50746006028623
1561305912626,,,,272.06169692667936
1561305912666,0.4405331015586853,9.720458984375,0.6129156351089478,268.40492292808125
1561305912696,,,,268.8561183944631
1561305912736,0.4118026793003082,9.806650161743164,0.6033388376235962,270.49586922926477
1561305912766,,,,273.1010194919235
1561305912806,,,,259.0141846306899
1561305912807,0.5171475410461426,9.921571731567383,0.45010992884635925,
1561305912837,,,,257.55652663916084
1561305912876,0.4213795065879822,9.825803756713867,0.8906430602073669,278.5992671322704
1561305912906,,,,277.2242954108335
1561305912946,0.4213795065879822,9.806650161743164,0.545877993106842,267.2921280179353
1561305912976,,,,267.7571546173864
1561305913016,0.4213795065879822,9.797073364257813,0.8044517636299133,276.03733147649035
1561305913046,,,,274.2038354956921
1561305913086,0.43095630407333374,9.84495735168457,0.4405331015586853,260.05768727170613
1561305913116,,,,261.26609116985395
1561305913156,0.4596867263317108,9.835380554199219,0.31603461503982544,250.81597004162614
1561305913186,,,,249.83466310319204
1561305913226,0.363918662071228,9.835380554199219,0.47884035110473633,267.4746170121797
1561305913256,,,,265.3961153156639
1561305913296,0.507570743560791,9.883264541625977,0.5554547905921936,259.12125467611907
1561305913326,,,,259.06897640821177
1561305913366,0.4596867263317108,9.730035781860352,0.8523358106613159,271.069529987465
1561305913396,,,,272.78728158258815
1561305913436,0.4405331015586853,9.749189376831055,0.5171475410461426,263.150922852454
1561305913466,,,,263.3326605258897
1561305913506,0.5171475410461426,9.892841339111328,0.5841852426528931,261.56202960621226
1561305913536,,,,260.8198134396745
1561305913576,0.4596867263317108,9.758766174316406,0.6320692300796509,266.12588004734476
1561305913606,,,,267.30537858492505
1561305913646,,,,265.5319063065529
1561305913647,0.4596867263317108,9.864110946655273,0.5841852426528931,
1561305913676,,,,266.71324899520914
1561305913716,0.45010992884635925,9.77791976928711,0.7852981686592102,273.6414582100008
1561305913746,,,,273.436135893361
1561305913786,0.4692635238170624,9.739612579345703,0.5363011956214905,263.76732693448014
1561305913816,,,,263.17259504269043
1561305913856,0.47884035110473633,9.90241813659668,0.545877993106842,263.0898541310849
1561305913886,,,,262.5213160147622
1561305913926,,,0.5554547905921936,268.07470377227867
1561305913927,0.40222588181495667,9.806650161743164,,
1561305913956,,,,267.56793788680955
1561305913996,0.3926490843296051,9.835380554199219,0.7852981686592102,275.34616414380923
1561305914026,,,,275.3852942975642
1561305914066,0.5650315880775452,9.883264541625977,0.4596867263317108,252.53715039171266
1561305914096,,,,254.61147201245637
1561305914136,0.5171475410461426,9.835380554199219,0.6703764796257019,266.701794767971
1561305914166,,,,269.4775426655292
1561305914206,0.38307225704193115,9.77791976928711,0.5267243981361389,272.5370644325339
1561305914236,,,,270.0396330832754
1561305914276,0.5171475410461426,9.835380554199219,0.5650315880775452,262.78746116596096
1561305914306,,,,260.7368607922047
1561305914346,0.43095630407333374,9.921571731567383,0.5267243981361389,264.52245898873844
1561305914376,,,,264.3212006346548
1561305914416,,,,254.7503365884719
1561305914417,0.45010992884635925,9.768342971801758,0.38307225704193115,
1561305914446,,,,253.9093695469141
1561305914486,0.4884171485900879,9.892841339111328,0.7661445140838623,268.3776431525362
1561305914517,,,,268.5900893564803
1561305914556,0.4596867263317108,9.816226959228516,0.545877993106842,262.55403945107577
1561305914586,,,,263.67408802212026
1561305914626,0.4692635238170624,9.768342971801758,0.7661445140838623,270.7197969812036
1561305914656,,,,271.53060873757585
1561305914696,0.47884035110473633,9.825803756713867,0.3447650372982025,251.47235122086437
1561305914727,,,,249.515112702873
1561305914766,0.5363011956214905,9.835380554199219,0.5267243981361389,256.8335237947583
1561305914796,,,,257.9338262889123
1561305914836,0.49799394607543945,9.758766174316406,0.6320692300796509,264.6129999763761
1561305914866,,,,264.75090832590786
1561305914906,0.4692635238170624,9.883264541625977,0.6607996821403503,267.6091717388289
1561305914936,,,,267.9651953493158
1561305914976,0.4405331015586853,9.797073364257813,0.6703764796257019,270.03361568661666
1561305915006,,,,271.6794795407254
1561305915046,0.5650315880775452,9.825803756713867,0.5363011956214905,258.82845812677897
1561305915076,,,,258.07348999706073
1561305915116,0.49799394607543945,,0.6033388376235962,264.8999362234083
1561305915117,,9.854534149169922,,
1561305915146,,,,263.80119101238506
1561305915186,0.4884171485900879,9.787496566772461,0.4405331015586853,256.4355628227675
1561305915216,,,,257.613743133838
1561305915256,0.5171475410461426,9.806650161743164,0.5841852426528931,262.98710076521127
1561305915286,,,,263.53544884234736
1561305915326,0.4884171485900879,9.787496566772461,0.5937620401382446,265.66143401397306
1561305915356,,,,266.16405397461597
1561305915396,0.5746083855628967,9.84495735168457,0.6703764796257019,264.15464647174406
1561305915426,,,,262.6147803233647
1561305915466,0.43095630407333374,9.758766174316406,0.7852981686592102,274.2122639491279
1561305915496,,,,272.465436238708
1561305915536,0.5267243981361389,9.864110946655273,0.6224924325942993,261.77253603643203
1561305915567,,,,262.3982360059186
1561305915606,0.507570743560791,9.816226959228516,0.7661445140838623,268.15840091036796
1561305915636,,,,268.26793665408746
1561305915676,0.4405331015586853,9.768342971801758,0.4596867263317108,260.32056759248155
1561305915706,,,,261.2645885282366
1561305915746,0.507570743560791,9.816226959228516,0.5650315880775452,262.16494406462766
1561305915776,,,,260.9971866222306
1561305915816,0.49799394607543945,9.825803756713867,0.6607996821403503,265.3447591232946
1561305915846,,,,268.2900323160525
1561305915886,0.47884035110473633,9.84495735168457,0.689530074596405,270.42649499786495
1561305915916,,,,270.3643675971745
1561305915956,0.4692635238170624,9.816226959228516,0.5267243981361389,264.469292796239
1561305915986,,,,264.2115760984761
1561305916026,0.4405331015586853,9.825803756713867,0.6320692300796509,270.53088077895023
1561305916056,,,,269.36140212888233
1561305916096,,,,265.6982760543561
1561305916097,0.5171475410461426,9.835380554199219,0.6607996821403503,
1561305916127,,,,265.6458816732329
1561305916166,0.4692635238170624,9.816226959228516,0.5267243981361389,263.1026402452112
1561305916196,,,,263.90437468017643
1561305916235,,,,275.1894659438708
1561305916236,0.45010992884635925,9.864110946655273,0.8331822156906128,
1561305916266,,,,275.16129824373365
1561305916306,0.49799394607543945,9.797073364257813,0.6320692300796509,266.4231776913479
1561305916336,,,,264.4110176222405
1561305916375,,,,267.86308402122415
1561305916376,0.49799394607543945,9.806650161743164,0.7374141216278076,
1561305916406,,,,270.48953764390416
1561305916446,0.3926490843296051,9.77791976928711,0.6129156351089478,273.1792388182985
1561305916476,,,,273.42835630789637
1561305916516,0.5171475410461426,9.892841339111328,0.6703764796257019,267.54692139473343
1561305916546,,,,266.46855746819347
1561305916586,0.45010992884635925,9.873687744140625,0.49799394607543945,263.500963217228
1561305916616,,,,266.0499556645309
1561305916656,0.4884171485900879,9.806650161743164,0.6703764796257019,270.75368154967606
1561305916686,,,,269.0406222945127
1561305916726,0.5171475410461426,9.797073364257813,0.6512228846549988,266.6583752554173
1561305916756,,,,266.99192754353487
1561305916796,,,,269.1040815820912
1561305916797,0.4118026793003082,9.816226959228516,0.5363011956214905,
1561305916826,,,,269.297471558251
1561305916866,0.5171475410461426,9.816226959228516,0.7469909191131592,270.3481937092199
1561305916896,,,,268.414273457055
1561305916936,0.43095630407333374,9.84495735168457,0.43095630407333374,260.3498827643993
1561305916966,,,,261.61444447790296
1561305917006,0.43095630407333374,9.825803756713867,0.8331822156906128,276.80460760709286
1561305917036,,,,275.81833512113224
1561305917076,0.45010992884635925,9.816226959228516,0.7661445140838623,273.08175152827494
1561305917106,,,,271.72764603475235
1561305917146,0.507570743560791,9.806650161743164,0.5937620401382446,262.49941159809396
1561305917176,,,,262.25730188258456
1561305917216,0.4213795065879822,9.816226959228516,0.6607996821403503,270.1662374697308
1561305917246,,,,272.5421256027089
1561305917286,0.5363011956214905,9.797073364257813,0.5650315880775452,261.6733958406293
1561305917316,,,,263.24974202936573
1561305917356,0.45010992884635925,9.835380554199219,0.5554547905921936,268.17500510024024
1561305917386,,,,267.94036761168286
1561305917426,0.47884035110473633,9.873687744140625,0.5746083855628967,266.93111836935424
1561305917456,,,,267.77994695864675
1561305917496,0.4884171485900879,9.739612579345703,0.7757213711738586,273.98079566834537
1561305917526,,,,270.757294719747
1561305917566,0.49799394607543945,9.864110946655273,0.6703764796257019,267.02846222540524
1561305917596,,,,266.90984233008965
1561305917636,0.5267243981361389,9.758766174316406,0.6033388376235962,262.63322183412373
1561305917666,,,,263.8924628302639
1561305917706,,,,273.1884664038672
1561305917707,0.4405331015586853,9.864110946655273,0.7182605266571045,
1561305917737,,,,273.69147568529274
1561305917776,0.5554547905921936,9.816226959228516,0.7086837291717529,266.6832986156987
1561305917807,,,,265.85672961291124
1561305917846,0.4596867263317108,9.77791976928711,0.6033388376235962,267.69906385849544
1561305917876,,,,264.23702538332356
1561305917916,,,,258.38321858535335
1561305917917,0.507570743560791,9.806650161743164,0.5363011956214905,
1561305917947,,,,259.2855958577387
1561305917986,0.5171475410461426,9.84495735168457,0.7182605266571045,265.7699383991279
1561305918016,,,,265.9820772445593
1561305918056,0.4692635238170624,9.854534149169922,0.6991068720817566,268.1851001198336
1561305918086,,,,268.94952123136306
1561305918126,0.47884035110473633,9.825803756713867,0.5650315880775452,263.3440123002903
1561305918156,,,,264.04204397308723
1561305918196,0.49799394607543945,9.84495735168457,0.6991068720817566,267.939247460659
1561305918226,,,,269.89130186507026
1561305918266,0.5171475410461426,9.787496566772461,0.6512228846549988,267.0854328332723
1561305918296,,,,267.0902959279614
1561305918336,0.507570743560791,9.835380554199219,0.5841852426528931,265.0323940819824
1561305918366,,,,263.3304065634636
1561305918406,0.4692635238170624,9.816226959228516,0.6991068720817566,269.8573968060303
1561305918437,,,,270.5665138758502
1561305918476,0.4884171485900879,9.873687744140625,0.5746083855628967,264.80339832967934
1561305918506,,,,263.90605490671226
1561305918546,0.5554547905921936,9.797073364257813,0.6703764796257019,263.71179749652794
1561305918576,,,,263.190093987344
1561305918616,0.5171475410461426,9.806650161743164,0.6607996821403503,265.0084542689415
1561305918646,,,,267.22093012602704
1561305918686,0.4596867263317108,9.816226959228516,0.6799532771110535,271.33743049728037
1561305918716,,,,274.205276665607
1561305918756,0.5267243981361389,9.797073364257813,0.6607996821403503,269.50350421456443
1561305918786,,,,270.0576374619276
1561305918826,0.507570743560791,9.883264541625977,0.6320692300796509,270.16768546983485
1561305918856,,,,268.87925224518193
1561305918896,0.5171475410461426,9.768342971801758,0.7469909191131592,272.1292065164358
1561305918926,,,,268.50621463347255
1561305918966,0.5171475410461426,9.835380554199219,0.7852981686592102,269.6229232420129
1561305918996,,,,267.0760344929744
1561305919036,0.507570743560791,9.797073364257813,0.727837324142456,265.98874350918925
1561305919066,,,,265.9074574278769
1561305919106,0.43095630407333374,9.787496566772461,0.6512228846549988,268.16464370326935
1561305919136,,,,269.342707901124
1561305919176,0.5267243981361389,9.883264541625977,0.9576807022094727,271.4767117148353
1561305919206,,,,276.5637204954449
1561305919246,0.545877993106842,9.864110946655273,0.5841852426528931,264.61435235383175
1561305919278,,,,264.1543459434206
1561305919316,0.5171475410461426,9.77791976928711,0.7374141216278076,271.26832947344735
1561305919346,,,,268.4084268151255
1561305919386,0.4692635238170624,9.797073364257813,0.7565677165985107,271.72537158175874
1561305919416,,,,270.85422876444784
1561305919456,0.545877993106842,9.854534149169922,0.7469909191131592,266.29571270105714
1561305919486,,,,267.2384973725723
1561305919526,0.4692635238170624,9.825803756713867,0.7565677165985107,271.8336369102926
1561305919556,,,,272.3785425720871
1561305919596,0.49799394607543945,9.787496566772461,0.6991068720817566,268.9716305537064
1561305919626,,,,270.11545501325173
1561305919666,0.5171475410461426,9.77791976928711,0.8236053586006165,272.5511004712783
1561305919696,,,,273.33804071650127
1561305919736,0.5267243981361389,9.806650161743164,0.6512228846549988,267.5917752470129
1561305919766,,,,266.3868684057201
1561305919806,0.45010992884635925,9.835380554199219,0.5363011956214905,266.4475068251715
1561305919836,,,,267.01139358266937
1561305919876,0.507570743560791,9.864110946655273,0.9768342971801758,276.5460644564404
1561305919906,,,,277.64125796909525
1561305919946,0.5171475410461426,9.758766174316406,0.6799532771110535,269.51043002638283
1561305919976,,,,268.97736791260917
1561305920016,0.5171475410461426,9.806650161743164,0.7469909191131592,271.17913403307614
1561305920046,,,,271.0091442850129
1561305920086,0.4596867263317108,9.825803756713867,0.871489405632019,277.41694772656285
1561305920116,,,,278.0760200003341
1561305920156,0.545877993106842,9.816226959228516,0.5554547905921936,262.8019138462447
1561305920186,,,,262.5357618648568
1561305920226,0.507570743560791,9.806650161743164,0.8810662031173706,275.28805972453995
1561305920256,,,,274.9756195511469
1561305920296,0.4884171485900879,9.758766174316406,0.7852981686592102,273.7259066688988
1561305920326,,,,272.679446555972
1561305920366,0.5171475410461426,9.797073364257813,0.8140285611152649,271.84781638300956
1561305920396,,,,271.894193367474
1561305920436,0.47884035110473633,9.825803756713867,0.6416460275650024,268.90655934148367
1561305920466,,,,270.2337197387305
1561305920506,0.5171475410461426,9.825803756713867,0.5267243981361389,263.04584039207333
1561305920536,,,,261.3299670989719
1561305920576,0.507570743560791,9.873687744140625,0.7374141216278076,270.00088542011395
1561305920606,,,,268.0617537336123
1561305920646,0.4884171485900879,9.84495735168457,0.7948749661445618,270.71742007537244
1561305920676,,,,273.8031151272766
1561305920716,0.545877993106842,9.749189376831055,0.8044517636299133,270.84465283923146
1561305920746,,,,270.5817998392127
1561305920786,0.43095630407333374,9.816226959228516,0.6224924325942993,271.7660180375095
1561305920816,,,,272.2055680313565
1561305920856,0.5554547905921936,9.90241813659668,0.7374141216278076,268.6712798151442
1561305920886,,,,269.4014680185536
1561305920926,0.5363011956214905,9.90241813659668,0.8140285611152649,272.6033514184289
1561305920957,,,,272.04773602001586
1561305920996,0.4405331015586853,9.730035781860352,0.8140285611152649,277.2720247727535
1561305921026,,,,278.01933626041216
1561305921065,,,,270.2710945338688
1561305921066,0.545877993106842,9.758766174316406,0.7469909191131592,
1561305921096,,,,268.418453532827
1561305921136,0.5267243981361389,9.864110946655273,0.7661445140838623,270.101043314103
1561305921166,,,,268.7078213272038
1561305921205,,,,266.67508189812713
1561305921206,0.49799394607543945,9.758766174316406,0.6512228846549988,
1561305921236,,,,268.0459418456837
1561305921276,0.5171475410461426,9.892841339111328,0.9672574996948242,275.1759011881792
1561305921306,,,,273.0753857919685
1561305921346,0.5554547905921936,9.835380554199219,0.7086837291717529,264.70285794509675
1561305921376,,,,265.5299938535853
1561305921416,0.49799394607543945,9.825803756713867,0.8523358106613159,272.5655258308053
1561305921446,,,,272.2956035849956
1561305921486,0.4884171485900879,9.787496566772461,0.47884035110473633,259.6552047144848
1561305921516,,,,259.8073471782468
1561305921556,0.545877993106842,9.90241813659668,0.689530074596405,265.500733323181
1561305921586,,,,266.78673500048933
1561305921626,0.49799394607543945,9.84495735168457,0.6799532771110535,269.15167434022794
1561305921656,,,,268.80139491883295
1561305921696,0.5363011956214905,9.835380554199219,0.8427590131759644,271.36574163139005
1561305921727,,,,274.81861399269576
1561305921766,0.49799394607543945,9.758766174316406,0.689530074596405,272.4872040515928
1561305921796,,,,270.137120373299
1561305921836,0.49799394607543945,9.825803756713867,0.7565677165985107,272.23074410863717
1561305921866,,,,272.42196891483
1561305921906,0.507570743560791,9.806650161743164,0.8044517636299133,273.1571909676577
1561305921936,,,,271.87614117749763
1561305921976,0.5267243981361389,9.84495735168457,0.9385270476341248,273.8769426420153
1561305922007,,,,275.1548163942113
1561305922046,0.5363011956214905,,0.689530074596405,268.2084798573625
1561305922047,,9.864110946655273,,
1561305922077,,,,265.74295915190635
1561305922116,0.5363011956214905,9.797073364257813,0.7374141216278076,267.24635209011785
1561305922146,,,,266.5848755897588
1561305922186,0.4692635238170624,9.758766174316406,0.8906430602073669,274.0719991843325
1561305922216,,,,274.22990632775407
1561305922256,0.5746083855628967,9.84495735168457,0.7757213711738586,265.89934316314293
1561305922286,,,,268.13845675799155
1561305922326,0.5171475410461426,9.825803756713867,0.7852981686592102,271.45804480783363
1561305922356,,,,270.3262551416058
1561305922396,0.507570743560791,9.806650161743164,0.6129156351089478,265.22093462383145
1561305922426,,,,264.65952039481306
1561305922466,0.5171475410461426,9.864110946655273,0.8427590131759644,271.1620175790161
1561305922496,,,,272.2202461078829
1561305922536,0.5267243981361389,9.787496566772461,0.8236053586006165,271.18341656168576
1561305922566,,,,272.34716468304003
1561305922606,0.4884171485900879,9.787496566772461,0.7374141216278076,272.17665584059984
1561305922636,,,,271.5307111904134
1561305922676,0.4884171485900879,9.873687744140625,0.9481038451194763,276.4274582215031
1561305922706,,,,277.3041266618526
1561305922746,0.5363011956214905,9.84495735168457,0.8044517636299133,271.6203505930806
1561305922776,,,,270.13947678856266
1561305922816,0.5171475410461426,9.739612579345703,0.8619126081466675,272.4609829553691
1561305922846,,,,273.1686725156525
1561305922886,0.45010992884635925,9.797073364257813,0.7852981686592102,275.18398813215646
1561305922916,,,,276.2992760613495
1561305922956,0.5554547905921936,9.873687744140625,0.727837324142456,268.73564068769326
1561305922986,,,,269.2874721613061
1561305923026,0.45010992884635925,9.854534149169922,0.7565677165985107,276.16621031593934
1561305923056,,,,275.83684493378297
1561305923096,0.5363011956214905,9.749189376831055,0.7661445140838623,271.03212104138083
1561305923126,,,,273.0545878659458
1561305923166,0.49799394607543945,9.797073364257813,0.9864110946655273,280.00897036563686
1561305923196,,,,276.6345768778946
1561305923236,0.47884035110473633,9.787496566772461,0.727837324142456,271.94555639003244
1561305923266,,,,271.4348904665473
1561305923306,0.4596867263317108,9.797073364257813,0.7757213711738586,273.8825092461889
1561305923336,,,,275.15924235679347
1561305923376,0.4884171485900879,9.864110946655273,0.9672574996948242,277.66866751823454
1561305923406,,,,276.9574672407178
1561305923446,0.507570743560791,9.768342971801758,0.8331822156906128,273.13954858903156
1561305923476,,,,273.9363789481728
1561305923516,0.507570743560791,,0.8044517636299133,273.27226599479405
1561305923517,,9.835380554199219,,
1561305923546,,,,274.27703463302714
1561305923586,0.47884035110473633,9.787496566772461,0.7374141216278076,274.04642695608
1561305923616,,,,272.5034189206824
1561305923656,0.5554547905921936,9.854534149169922,0.7757213711738586,269.37372379014505
1561305923687,,,,268.9843073848059
1561305923726,0.4692635238170624,9.873687744140625,0.7182605266571045,272.2254438818412
1561305923756,,,,273.0115098628505
1561305923796,0.4884171485900879,9.797073364257813,0.871489405632019,275.70268635810555
1561305923826,,,,275.035322234682
1561305923866,0.49799394607543945,9.77791976928711,0.7852981686592102,272.4730245788759
1561305923896,,,,272.6402685908928
1561305923936,0.507570743560791,9.864110946655273,0.6991068720817566,269.62754044989185
1561305923966,,,,271.3431746863723
1561305924006,0.49799394607543945,9.84495735168457,0.7469909191131592,273.3630255484852
1561305924036,,,,272.3480047963079
1561305924076,0.4596867263317108,9.797073364257813,0.8236053586006165,276.5058619629857
1561305924106,,,,275.42697894206884
1561305924146,0.5363011956214905,9.864110946655273,0.8140285611152649,271.00192477506016
1561305924176,,,,269.1776427194523
1561305924216,0.49799394607543945,9.806650161743164,0.8236053586006165,271.440060919749
1561305924246,,,,272.9862176723539
1561305924286,0.43095630407333374,9.768342971801758,0.7948749661445618,276.13745521953354
1561305924316,,,,277.58499087071266
1561305924356,0.5267243981361389,9.84495735168457,0.5841852426528931,265.00380291011675
1561305924386,,,,265.2402982101284
1561305924426,0.507570743560791,9.883264541625977,0.871489405632019,275.358246748451
1561305924456,,,,273.68403760928663
1561305924496,0.4884171485900879,9.806650161743164,0.6224924325942993,267.4387311982804
1561305924527,,,,267.35339481479025
1561305924566,0.545877993106842,9.806650161743164,0.9385270476341248,272.9809106153688
1561305924596,,,,272.2362287505407
1561305924636,0.4692635238170624,9.816226959228516,0.6033388376235962,267.0393358865639
1561305924666,,,,269.3830469983621
1561305924706,0.545877993106842,9.825803756713867,0.8044517636299133,271.4759125827024
1561305924736,,,,268.99313881940276
1561305924776,0.47884035110473633,9.84495735168457,0.9193734526634216,275.12326092024585
1561305924807,,,,274.2054542505254
1561305924846,0.5650315880775452,9.892841339111328,0.7374141216278076,265.25867141899573
1561305924877,,,,266.615536308943
1561305924916,0.5841852426528931,9.749189376831055,0.9959878921508789,271.53757553052924
1561305924946,,,,271.3678521598436
1561305924986,0.5171475410461426,9.816226959228516,0.6416460275650024,265.9464168269027
1561305925016,,,,265.53944683539663
1561305925056,0.5841852426528931,9.787496566772461,0.9002198576927185,269.1956402679153
1561305925086,,,,269.612561845042
1561305925126,0.507570743560791,9.816226959228516,0.8427590131759644,272.27154082854963
1561305925156,,,,271.50354069789506
1561305925196,0.5171475410461426,9.816226959228516,0.7086837291717529,267.3502529277721
1561305925226,,,,267.3760505522672
1561305925266,0.49799394607543945,9.84495735168457,0.8044517636299133,271.20104527993357
1561305925296,,,,271.54883168228145
1561305925336,0.5363011956214905,,0.6224924325942993,263.5403392577931
1561305925337,,9.749189376831055,,
1561305925367,,,,264.2781841032621
1561305925406,,,,272.1245756481785
1561305925407,0.5171475410461426,9.797073364257813,0.8427590131759644,
1561305925436,,,,273.42908713813756
1561305925476,0.4692635238170624,9.854534149169922,0.7565677165985107,273.9908497068036
1561305925506,,,,274.91050735778913
1561305925545,,,,267.76909378805556
1561305925546,0.545877993106842,9.84495735168457,0.6703764796257019,
1561305925576,,,,265.909991428059
1561305925616,0.5650315880775452,9.797073364257813,0.9481038451194763,272.3180680771758
1561305925646,,,,271.7886806051756
1561305925686,0.5267243981361389,9.797073364257813,0.727837324142456,268.2844657118789
1561305925716,,,,269.11676524338
1561305925756,0.507570743560791,9.816226959228516,0.8044517636299133,272.35156332486554
1561305925786,,,,273.18956606432357
1561305925826,,,,271.4152468424943
1561305925828,0.5554547905921936,9.892841339111328,0.8331822156906128,
1561305925856,,,,272.48223167387704
1561305925896,0.507570743560791,9.835380554199219,0.7661445140838623,273.2502796158558
1561305925927,,,,271.90647404760165
1561305925966,0.5363011956214905,9.806650161743164,0.7757213711738586,270.5471571197424
1561305925996,,,,271.1085371978149
1561305926036,0.5267243981361389,9.787496566772461,0.727837324142456,270.2474825699081
1561305926066,,,,268.4320251187079
1561305926106,0.5363011956214905,9.873687744140625,0.8906430602073669,272.14645274409
1561305926136,,,,272.5013698639314
1561305926176,0.4596867263317108,9.77791976928711,0.6320692300796509,269.62686426116403
1561305926206,,,,268.85318141312
1561305926246,0.5650315880775452,9.90241813659668,0.9097966551780701,270.71385471662575
1561305926276,,,,270.5132384003241
1561305926316,0.5171475410461426,9.797073364257813,0.8331822156906128,271.21313471476446
1561305926346,,,,273.57545809205095
1561305926386,0.545877993106842,9.787496566772461,0.8140285611152649,271.55083292770826
1561305926416,,,,272.1713829345606
1561305926456,0.49799394607543945,9.77791976928711,0.9193734526634216,277.0443813979062
1561305926486,,,,278.0766552079269
1561305926526,0.5746083855628967,9.816226959228516,0.9002198576927185,273.7775019178891
1561305926556,,,,272.8850147594219
1561305926596,0.49799394607543945,9.854534149169922,0.6512228846549988,270.0740504065031
1561305926626,,,,269.71457072029614
1561305926666,0.5171475410461426,9.77791976928711,0.7661445140838623,272.2069613899472
1561305926696,,,,271.86110110094523
1561305926736,0.5171475410461426,9.816226959228516,0.9959878921508789,276.8642283283579
1561305926766,,,,277.62961932674955
1561305926806,0.5363011956214905,9.816226959228516,0.8044517636299133,272.58969787027803
1561305926836,,,,272.9197189505947
1561305926876,0.545877993106842,9.816226959228516,0.8906430602073669,274.49318279950137
1561305926906,,,,273.0135657497907
1561305926946,0.43095630407333374,9.854534149169922,0.9576807022094727,280.3560532585002
1561305926976,,,,278.12708932475823
1561305927016,0.5267243981361389,9.797073364257813,0.8331822156906128,270.46538609499896
1561305927046,,,,269.44115824782057
1561305927086,0.4884171485900879,9.816226959228516,0.9193734526634216,273.31862248869095
1561305927116,,,,274.95494456852924
1561305927156,0.49799394607543945,9.797073364257813,0.9289502501487732,274.61032737395624
1561305927186,,,,276.3976649363435
1561305927226,0.545877993106842,,0.6991068720817566,268.0025769746433
1561305927227,,9.787496566772461,,
1561305927256,,,,266.7157556746346
1561305927296,0.545877993106842,9.911994934082031,0.8619126081466675,271.2636917750009
1561305927326,,,,269.8512086546423
1561305927366,0.5267243981361389,9.768342971801758,0.8619126081466675,270.7273784911823
1561305927396,,,,272.07347217280847
1561305927436,0.4884171485900879,9.758766174316406,0.8906430602073669,274.71746572127705
1561305927466,,,,274.75551670514324
1561305927506,0.4884171485900879,9.84495735168457,0.871489405632019,274.4344909839634
1561305927536,,,,273.7676049737817
1561305927576,0.5746083855628967,9.864110946655273,0.9002198576927185,269.90624631897424
1561305927606,,,,272.56522530248185
1561305927646,0.4405331015586853,9.768342971801758,1.0055646896362305,281.23930600120957
1561305927677,,,,281.1425768621839
1561305927716,,,0.8427590131759644,270.6505593535872
1561305927717,0.5841852426528931,9.892841339111328,,
1561305927748,,,,269.20926649530946
1561305927786,0.5267243981361389,9.77791976928711,1.0247182846069336,275.60433846424655
1561305927816,,,,277.1140220066836
1561305927857,0.5171475410461426,9.787496566772461,0.7565677165985107,271.8507123832177
1561305927886,,,,271.3382501199808
1561305927926,0.4596867263317108,9.825803756713867,0.7852981686592102,275.4447442641
1561305927956,,,,276.41230203173484
1561305927996,0.4692635238170624,9.911994934082031,0.8619126081466675,277.682908462654
1561305928026,,,,277.86011772066996
1561305928066,0.5363011956214905,9.797073364257813,0.7852981686592102,272.2098232392094
1561305928096,,,,272.59141907794884
1561305928136,0.5267243981361389,9.816226959228516,0.8236053586006165,274.1301719054935
1561305928166,,,,273.0304431472298
1561305928206,0.49799394607543945,9.787496566772461,0.7852981686592102,273.6200455669528
1561305928236,,,,276.05088257180364
1561305928276,0.507570743560791,9.864110946655273,0.8236053586006165,276.54998498502397
1561305928306,,,,277.54090199962025
1561305928346,0.49799394607543945,9.787496566772461,0.8331822156906128,278.24316155951345
1561305928376,,,,276.4103554278214
1561305928416,0.45010992884635925,9.854534149169922,1.1204863786697388,283.74521361522807
1561305928446,,,,282.4978161671086
1561305928486,0.5554547905921936,9.816226959228516,0.7661445140838623,270.27719389279764
1561305928516,,,,272.3906524974855
1561305928555,,,,278.1840121213012
1561305928556,0.5267243981361389,9.77791976928711,0.9481038451194763,
1561305928586,,,,275.3284671236697
1561305928626,0.45010992884635925,9.787496566772461,0.9576807022094727,279.4869594979403
1561305928656,,,,279.82357171080605
1561305928696,0.5363011956214905,9.864110946655273,0.7182605266571045,269.4768254956664
1561305928726,,,,269.699981436229
1561305928765,,,,272.98631329500233
1561305928766,0.5267243981361389,9.873687744140625,0.8140285611152649,
1561305928796,,,,270.7588246821211
1561305928836,0.545877993106842,9.797073364257813,0.8619126081466675,270.85269197188455
1561305928866,,,,271.824252230373
1561305928906,0.545877993106842,9.768342971801758,0.8331822156906128,271.1149439152564
1561305928936,,,,270.0144911569406
1561305928976,0.545877993106842,9.797073364257813,0.9768342971801758,273.0411597140375
1561305929006,,,,272.71213584133966
1561305929046,0.545877993106842,9.77791976928711,0.9193734526634216,271.615023045528
1561305929076,,,,269.4653780986174
1561305929116,0.47884035110473633,9.835380554199219,0.8810662031173706,272.26227226184596
1561305929146,,,,273.07900579222854
1561305929186,0.5841852426528931,9.835380554199219,0.8619126081466675,267.18197755719046
1561305929216,,,,269.80610891555267
1561305929256,0.5363011956214905,9.77791976928711,0.9768342971801758,274.5201347259662
1561305929286,,,,274.5371760479454
1561305929326,0.5171475410461426,9.749189376831055,0.9193734526634216,274.39700690579843
1561305929356,,,,275.71152462289155
1561305929396,0.5554547905921936,9.816226959228516,0.9097966551780701,273.61881613290217
1561305929426,,,,272.9654538972771
1561305929466,0.5554547905921936,9.825803756713867,0.7948749661445618,270.2099780011755
1561305929496,,,,268.7429694806727
1561305929536,0.545877993106842,9.806650161743164,0.7852981686592102,268.97676685596224
1561305929566,,,,268.4339717226213
1561305929606,0.545877993106842,9.816226959228516,0.9193734526634216,271.65902995435044
1561305929636,,,,273.13137285259506
1561305929676,0.5363011956214905,9.77791976928711,0.9959878921508789,275.0356500837621
1561305929706,,,,275.42225928135235
1561305929746,0.5363011956214905,9.84495735168457,0.7086837291717529,268.5737856949315
1561305929776,,,,269.1191489794003
1561305929816,0.4884171485900879,9.835380554199219,1.0534487962722778,279.2019357038757
1561305929846,,,,280.58183882189337
1561305929886,0.5171475410461426,9.806650161743164,0.8906430602073669,276.2733623236385
1561305929917,,,,275.39420086424195
1561305929956,,,,269.5052185920461
1561305929957,0.5746083855628967,9.816226959228516,0.7757213711738586,
1561305929987,,,,268.9526631183812
1561305930026,0.5267243981361389,9.787496566772461,0.9672574996948242,275.85616753894493
1561305930056,,,,276.4747914324513
1561305930096,0.5650315880775452,9.854534149169922,0.7374141216278076,269.01056263197546
1561305930126,,,,270.1576655823224
1561305930166,0.507570743560791,9.816226959228516,0.9193734526634216,277.8547696825499
1561305930196,,,,277.72132144654614
1561305930236,0.5267243981361389,9.787496566772461,0.9289502501487732,276.897334255265
1561305930266,,,,275.9908588693776
1561305930306,0.5746083855628967,9.77791976928711,0.8810662031173706,272.53404548892075
1561305930336,,,,271.45897371356074
1561305930376,0.5171475410461426,9.816226959228516,0.9289502501487732,275.42018290384465
1561305930406,,,,277.28295990561475
1561305930446,0.4596867263317108,9.806650161743164,0.9481038451194763,280.6489317701104
1561305930476,,,,280.9800525108834
1561305930516,0.6033388376235962,,0.9002198576927185,272.6739345933118
1561305930517,,9.816226959228516,,
1561305930546,,,,271.0207624367911
1561305930586,,,1.015141487121582,275.9748557361522
1561305930587,0.545877993106842,9.787496566772461,,
1561305930616,,,,276.1069925758353
1561305930656,0.5171475410461426,9.758766174316406,0.9768342971801758,276.8620494980127
1561305930686,,,,277.4890540336307
1561305930726,,,,273.7106821772388
1561305930727,0.49799394607543945,9.854534149169922,0.7565677165985107,
1561305930756,,,,273.7523804821218
1561305930796,0.5363011956214905,9.816226959228516,0.9385270476341248,275.9392362996306
1561305930826,,,,274.57447571100283
1561305930866,0.5363011956214905,9.77791976928711,1.0247182846069336,276.0564491759772
1561305930896,,,,277.3961771212969
1561305930935,,,,275.6504422411441
1561305930936,0.4884171485900879,9.816226959228516,0.8140285611152649,
1561305930966,,,,273.8348959974847
1561305931005,,,,275.5115981556961
1561305931006,0.5267243981361389,9.787496566772461,0.9959878921508789,
1561305931036,,,,276.1086591419928
1561305931075,,,,271.9491832204817
1561305931076,0.5363011956214905,9.806650161743164,0.8236053586006165,
1561305931106,,,,273.1532636088849
1561305931146,0.47884035110473633,9.825803756713867,0.871489405632019,277.3956238759741
1561305931176,,,,277.08345691014785
1561305931216,0.6033388376235962,9.806650161743164,0.9768342971801758,272.9445261976602
1561305931246,,,,273.7015775350752
1561305931286,0.5171475410461426,9.787496566772461,0.9672574996948242,277.69846080339414
1561305931316,,,,276.59121200685416
1561305931356,0.49799394607543945,9.797073364257813,0.8044517636299133,274.17451349358527
1561305931386,,,,272.86836958841457
1561305931425,,,,274.2385533472433
1561305931426,0.5363011956214905,9.835380554199219,0.9576807022094727,
1561305931456,,,,275.5616702725015
1561305931496,0.49799394607543945,9.854534149169922,0.9576807022094727,277.5097768275725
1561305931526,,,,276.221439225568
1561305931565,,,,274.6559803583686
1561305931566,0.5171475410461426,9.797073364257813,0.9289502501487732,
1561305931596,,,,274.68522039820544
1561305931636,0.507570743560791,9.806650161743164,0.8906430602073669,274.4221829830791
1561305931666,,,,274.15515673747745
1561305931706,0.5363011956214905,9.825803756713867,0.9481038451194763,273.84962188533524
1561305931736,,,,274.0961439030485
1561305931776,0.507570743560791,9.758766174316406,0.8523358106613159,273.51880850307487
1561305931806,,,,273.6827945148577
1561305931846,0.4692635238170624,9.864110946655273,0.9959878921508789,278.48728618082805
1561305931876,,,,279.0728656191299
1561305931916,0.5841852426528931,9.825803756713867,0.871489405632019,270.7876344200402
1561305931946,,,,271.1846391655472
1561305931986,0.5363011956214905,9.77791976928711,0.9959878921508789,276.05860068556575
1561305932016,,,,275.38909871293197
1561305932056,0.507570743560791,9.806650161743164,0.9097966551780701,275.2568184392763
1561305932086,,,,276.8091087017559
1561305932126,0.5746083855628967,9.864110946655273,0.9193734526634216,273.6589708150327
1561305932156,,,,273.6578028526846
1561305932196,0.49799394607543945,9.883264541625977,0.871489405632019,276.58821355380854
1561305932226,,,,276.123050350574
1561305932266,0.5267243981361389,9.768342971801758,0.9193734526634216,275.49515106017475
1561305932296,,,,274.6355307719936
1561305932336,0.5363011956214905,9.787496566772461,0.9193734526634216,274.1636330022374
1561305932366,,,,277.6022985700695
1561305932406,0.507570743560791,9.825803756713867,0.8427590131759644,277.4426292378421
1561305932437,,,,276.4114482580886
1561305932476,0.5171475410461426,9.854534149169922,0.9002198576927185,277.2193298633069
1561305932506,,,,276.2127102438088
1561305932546,0.4692635238170624,9.816226959228516,0.8331822156906128,277.2903911514317
1561305932576,,,,277.68064767003875
1561305932616,0.5267243981361389,9.892841339111328,0.9864110946655273,277.8060909243352
1561305932646,,,,279.4386290793733
1561305932686,0.545877993106842,9.749189376831055,1.015141487121582,278.87272741607023
1561305932716,,,,276.6115386498241
1561305932756,0.5171475410461426,9.816226959228516,0.8906430602073669,275.7276711900895
1561305932786,,,,276.21004647003247
1561305932826,0.5554547905921936,9.797073364257813,0.9864110946655273,276.18068348679054
1561305932856,,,,274.79208553795945
1561305932896,0.545877993106842,9.816226959228516,0.9481038451194763,274.5606172571769
1561305932926,,,,276.1792081659298
1561305932966,0.545877993106842,9.835380554199219,0.9193734526634216,275.61917363512384
1561305932996,,,,276.1104281609878
1561305933036,0.5171475410461426,9.787496566772461,0.8906430602073669,276.9377758053406
1561305933066,,,,276.89013523587977
1561305933106,0.5267243981361389,9.864110946655273,0.9385270476341248,277.45118063468294
1561305933136,,,,277.5874907199489
1561305933176,0.5746083855628967,9.825803756713867,1.1013327836990356,278.0889836993788
1561305933206,,,,278.1097406442664
1561305933246,0.49799394607543945,9.749189376831055,0.7565677165985107,274.73437043947285
1561305933277,,,,274.44929200389487
1561305933316,0.5746083855628967,,1.072602391242981,277.28313749053314
1561305933317,,9.854534149169922,,
1561305933346,,,,276.9123743318173
1561305933386,0.5554547905921936,9.797073364257813,0.8331822156906128,273.09283692529783
1561305933416,,,,270.76876943755263
1561305933456,,,,273.0126505044419
1561305933457,0.5267243981361389,9.864110946655273,0.8619126081466675,
1561305933486,,,,273.6804039486482
1561305933526,0.5363011956214905,9.749189376831055,1.0055646896362305,275.91052901454907
1561305933556,,,,277.6954145390243
1561305933596,0.5650315880775452,9.797073364257813,0.871489405632019,273.6048142451036
1561305933626,,,,273.2972986381022
1561305933666,0.5841852426528931,9.787496566772461,1.1492167711257935,277.35697183546097
1561305933696,,,,278.6233981906081
1561305933736,0.5650315880775452,9.806650161743164,0.871489405632019,274.52999751912773
1561305933766,,,,275.5588835553201
1561305933806,0.5267243981361389,9.806650161743164,0.8236053586006165,276.38968727539293
1561305933836,,,,276.2143358288312
1561305933876,0.5554547905921936,9.864110946655273,0.9193734526634216,277.0367247558466
1561305933906,,,,274.25390761249747
1561305933946,0.507570743560791,9.835380554199219,1.1300631761550903,279.9760761745941
1561305933976,,,,279.79582065220825
1561305934016,0.6224924325942993,9.787496566772461,0.7757213711738586,266.9881367885455
1561305934046,,,,266.5786464572357
1561305934086,0.5267243981361389,9.854534149169922,1.0630255937576294,277.60780370254054
1561305934116,,,,278.7420795576262
1561305934156,0.47884035110473633,9.768342971801758,0.9959878921508789,279.9756663632439
1561305934186,,,,281.8034659662743
1561305934226,0.545877993106842,9.787496566772461,0.8523358106613159,275.4607815482712
1561305934256,,,,275.4028205629745
1561305934296,,,,276.2875417963554
1561305934297,0.5171475410461426,9.873687744140625,0.8236053586006165,
1561305934326,,,,274.44494117339354
1561305934366,0.507570743560791,9.787496566772461,1.0247182846069336,278.87873115235067
1561305934396,,,,276.497276415199
1561305934436,0.5363011956214905,9.787496566772461,1.0342950820922852,275.26324564728526
1561305934466,,,,277.50619780844744
1561305934506,0.545877993106842,9.835380554199219,0.8906430602073669,274.31360346584336
1561305934536,,,,273.31330860151667
1561305934576,0.47884035110473633,9.787496566772461,0.7852981686592102,274.3746790174016
1561305934606,,,,275.06805933137383
1561305934646,0.4692635238170624,9.825803756713867,1.1109095811843872,281.4540744694715
1561305934677,,,,281.04791727047666
1561305934716,0.5267243981361389,9.806650161743164,0.9864110946655273,276.42287516457003
1561305934746,,,,278.92248534417377
1561305934786,0.5554547905921936,9.768342971801758,0.9097966551780701,275.93829373352514
1561305934816,,,,275.6803311489521
1561305934856,0.47884035110473633,9.787496566772461,1.0342950820922852,281.783849662978
1561305934886,,,,281.70223573258556
1561305934926,0.5363011956214905,,0.8044517636299133,274.1957417215257
1561305934927,,9.873687744140625,,
1561305934957,,,,273.9895041595371
1561305935004,,,0.9002198576927185,277.2014689186273
1561305935005,0.5171475410461426,9.797073364257813,,
1561305935035,,,,276.78657590768404
1561305935086,0.5171475410461426,9.825803756713867,0.8427590131759644,275.5459130260863
1561305935097,,,,273.79476863611086
1561305935156,0.5554547905921936,9.806650161743164,1.0342950820922852,275.51562113711725
1561305935166,,,,270.0718647459687
1561305935226,0.4884171485900879,9.797073364257813,0.8810662031173706,270.78445155188695
1561305935236,,,,272.48603608924475
1561305935296,0.4692635238170624,9.825803756713867,0.9768342971801758,275.20877488865443
1561305935306,,,,275.74352405915306
1561305935366,0.5841852426528931,9.825803756713867,0.871489405632019,267.8723662483062
1561305935377,,,,268.33681911186704
1561305935436,0.5363011956214905,9.797073364257813,1.1204863786697388,274.8918677715442
1561305935447,,,,275.76009409807955
1561305935506,0.4596867263317108,9.739612579345703,1.0247182846069336,278.0848719254984
1561305935517,,,,279.56481682428927
1561305935576,0.5554547905921936,9.864110946655273,0.7757213711738586,269.48056160914234
1561305935586,,,,270.83379283845113
1561305935646,0.5171475410461426,9.84495735168457,1.072602391242981,278.9623326677916
1561305935656,,,,280.445310170574
1561305935716,0.5267243981361389,9.787496566772461,0.9959878921508789,278.7122248007641
1561305935726,,,,278.6403438899389
1561305935786,0.5267243981361389,9.825803756713867,0.9576807022094727,277.98478233340103
1561305935796,,,,278.09406536012125
1561305935856,0.5171475410461426,9.797073364257813,0.8906430602073669,277.20547823967013
1561305935866,,,,276.89924670823257
1561305935926,0.47884035110473633,9.787496566772461,0.7852981686592102,276.5045847176109
1561305935937,,,,273.0174794481851
1561305935996,0.4884171485900879,9.864110946655273,1.2258312702178955,279.8572240528467
1561305936006,,,,281.8995189165722
1561305936066,0.5841852426528931,9.787496566772461,0.8619126081466675,271.3766289529271
1561305936076,,,,270.8213414035942
1561305936136,0.5171475410461426,9.825803756713867,1.0438719987869263,277.7142248799985
1561305936146,,,,279.6411100373183
1561305936205,,,,277.86004941877826
1561305936206,0.5267243981361389,9.806650161743164,0.9672574996948242,
1561305936216,,,,277.22017680676396
1561305936276,0.5650315880775452,9.892841339111328,0.9097966551780701,274.2207880252121
1561305936286,,,,270.7176386414259
1561305936346,0.545877993106842,9.797073364257813,0.8140285611152649,269.32835767367783
1561305936357,,,,271.51690054791163
1561305936416,0.5554547905921936,9.768342971801758,1.0247182846069336,275.4298066403852
1561305936426,,,,276.28502828674084
1561305936486,0.5554547905921936,9.77791976928711,1.0055646896362305,275.9692413206545
1561305936496,,,,275.126238882724
1561305936556,0.507570743560791,9.825803756713867,0.9193734526634216,276.0117387576703
1561305936566,,,,277.6936591804076
1561305936626,0.545877993106842,9.854534149169922,1.0247182846069336,277.6755933300529
1561305936636,,,,277.44338738884
1561305936696,0.5841852426528931,9.825803756713867,1.0247182846069336,275.6047346152184
1561305936707,,,,275.3463075777818
1561305936766,0.6129156351089478,9.797073364257813,1.0821791887283325,274.97738173995276
1561305936777,,,,274.0556955227837
1561305936836,0.5554547905921936,9.749189376831055,0.9289502501487732,273.9462485715234
1561305936846,,,,273.3253297344559
1561305936906,0.5841852426528931,9.758766174316406,1.0821791887283325,274.63239571516453
1561305936916,,,,275.8497539913143
1561305936976,0.545877993106842,9.835380554199219,0.9768342971801758,275.9419205639744
1561305936987,,,,277.5960626073573
1561305937046,0.5650315880775452,9.84495735168457,0.9864110946655273,276.8514695349883
1561305937057,,,,275.21123375675563
1561305937118,,,,272.53291167751854
1561305937119,0.5746083855628967,9.797073364257813,0.8810662031173706,
1561305937127,,,,272.522324884305
1561305937186,0.5841852426528931,9.797073364257813,1.158793568611145,276.81001711691556
1561305937196,,,,277.69858374679916
1561305937256,0.5650315880775452,9.682151794433594,0.8331822156906128,272.52280982773607
1561305937267,,,,272.2600046390415
1561305937326,0.4884171485900879,9.90241813659668,1.0438719987869263,280.4973084007253
1561305937337,,,,282.47574099571113
1561305937396,0.6129156351089478,9.854534149169922,0.9672574996948242,275.0809478983376
1561305937406,,,,274.480874798617
1561305937466,0.6224924325942993,9.720458984375,0.9864110946655273,274.3058170501896
1561305937476,,,,273.9789583474586
1561305937536,0.4884171485900879,9.835380554199219,0.9672574996948242,280.2535321190583
1561305937547,,,,280.42313254633893
1561305937606,0.6129156351089478,9.787496566772461,0.9481038451194763,273.87377343424043
1561305937617,,,,273.53951080644913
1561305937676,0.545877993106842,9.864110946655273,0.9193734526634216,276.2340682453434
1561305937686,,,,274.9473698887397
1561305937746,0.545877993106842,9.864110946655273,0.8331822156906128,272.9939426163052
1561305937757,,,,272.80582554618474
1561305937816,0.5841852426528931,9.797073364257813,1.0342950820922852,274.9247824531545
1561305937827,,,,275.5422520446911
1561305937886,0.5554547905921936,9.806650161743164,0.9672574996948242,275.7386404738965
1561305937896,,,,274.640045527035
1561305937956,0.49799394607543945,9.835380554199219,0.7948749661445618,273.91353879558824
1561305937967,,,,274.06417178754367
1561305938026,0.5746083855628967,9.787496566772461,1.0630255937576294,275.55160940385406
1561305938037,,,,274.94637951131006
1561305938096,0.5554547905921936,9.825803756713867,1.0821791887283325,276.1538818244874
1561305938106,,,,276.90477233127115
1561305938166,0.507570743560791,9.710882186889648,0.727837324142456,271.69466305125036
1561305938176,,,,269.5193092723039
1561305938236,0.5267243981361389,9.864110946655273,0.9193734526634216,273.30837037474674
1561305938247,,,,274.25575176357336
1561305938306,0.5841852426528931,9.806650161743164,0.9193734526634216,271.33470525180155
1561305938316,,,,272.5373786212357
1561305938376,0.4884171485900879,9.84495735168457,0.8810662031173706,276.67678744696525
1561305938386,,,,275.729781718543
1561305938446,0.5363011956214905,9.806650161743164,0.9193734526634216,273.9882815556757
1561305938456,,,,274.50077113966927
1561305938516,0.5554547905921936,9.90241813659668,0.9097966551780701,273.41504426920403
1561305938526,,,,274.84966403266264
1561305938586,0.5363011956214905,9.77791976928711,0.9385270476341248,276.3014890426406
1561305938596,,,,276.86870210226425
1561305938656,0.4405331015586853,9.797073364257813,0.8427590131759644,280.0856324088811
1561305938666,,,,279.34434514807043
1561305938725,,,,275.43064675365315
1561305938726,0.5746083855628967,9.864110946655273,0.9959878921508789,
1561305938736,,,,273.670472853595
1561305938796,0.6991068720817566,9.797073364257813,0.9002198576927185,265.89465082318316
1561305938806,,,,267.91730889304483
1561305938866,0.5554547905921936,9.739612579345703,0.9576807022094727,275.83786946215844
1561305938876,,,,273.8157646376195
1561305938936,0.5746083855628967,9.77791976928711,0.8619126081466675,270.85862057608415
1561305938946,,,,271.65210414253204
1561305939006,0.5841852426528931,9.921571731567383,0.8140285611152649,270.0690848589765
1561305939016,,,,269.42801696385743
1561305939076,0.545877993106842,9.768342971801758,0.8236053586006165,271.5357450398317
1561305939086,,,,270.88954084245677
1561305939146,0.545877993106842,9.797073364257813,0.9481038451194763,273.65027598421926
1561305939156,,,,274.4994392527811
1561305939216,0.6703764796257019,9.883264541625977,0.8810662031173706,267.1631057445137
1561305939226,,,,267.5591269427802
1561305939286,0.6129156351089478,9.816226959228516,0.7948749661445618,267.98091161459604
1561305939296,,,,268.7293500834677
1561305939356,0.545877993106842,9.90241813659668,1.158793568611145,279.0555647499623
1561305939366,,,,278.33372303771864
1561305939426,0.6799532771110535,9.605537414550781,0.6607996821403503,260.1661575059151
1561305939437,,,,260.8835937461441
1561305939496,0.5937620401382446,9.84495735168457,1.1300631761550903,276.55223894745006
1561305939507,,,,278.4815556521144
1561305939566,0.6703764796257019,9.825803756713867,1.0821791887283325,274.38784079193226
1561305939577,,,,275.63611933445463
1561305939636,,,1.0534487962722778,276.1081741985617
1561305939637,0.6512228846549988,9.998186111450195,,
1561305939646,,,,277.56345528425965
1561305939706,0.7661445140838623,9.77791976928711,0.9289502501487732,269.8046677456378
1561305939716,,,,269.1870752106961
1561305939776,0.8236053586006165,9.643844604492188,1.0534487962722778,269.5574285580617
1561305939787,,,,270.2623245709745
1561305939846,0.7374141216278076,9.959878921508789,1.1300631761550903,275.36479006967585
1561305939857,,,,274.95781324798065
1561305939916,0.5554547905921936,9.96945571899414,1.1779472827911377,283.3235518868173
1561305939926,,,,283.534092467983
1561305939986,,,0.6512228846549988,258.01447033244267
1561305939987,0.8427590131759644,9.66299819946289,,
1561305939997,,,,256.4890022228337
1561305940056,0.5267243981361389,9.710882186889648,0.5650315880775452,267.84059220828726
1561305940067,,,,265.9148886736939
1561305940126,0.727837324142456,9.883264541625977,1.0247182846069336,269.934680396489
1561305940137,,,,269.186952267291
1561305940196,0.545877993106842,9.825803756713867,0.689530074596405,269.0976953552173
1561305940206,,,,270.11239508850355
1561305940266,0.5746083855628967,9.758766174316406,0.6703764796257019,267.81563469706003
1561305940277,,,,267.20532997396276
1561305940336,0.5267243981361389,9.873687744140625,0.7374141216278076,272.14081783802476
1561305940346,,,,272.5141969591927
1561305940406,0.5746083855628967,9.825803756713867,0.9576807022094727,275.40947999741525
1561305940416,,,,278.30732435657654
1561305940476,0.8523358106613159,9.758766174316406,1.0438719987869263,268.1020245289587
1561305940487,,,,269.177629059074
1561305940546,,,,273.5200789182605
1561305940547,0.7948749661445618,9.653421401977539,1.1683704853057861,
1561305940557,,,,275.23414221123187
1561305940616,0.8810662031173706,9.921571731567383,1.1204863786697388,271.49802873523487
1561305940626,,,,269.669730528395
1561305940686,0.8236053586006165,9.825803756713867,0.7469909191131592,262.6099172286756
1561305940696,,,,262.3427748698581
1561305940756,0.7661445140838623,9.825803756713867,0.9768342971801758,270.83821197084416
1561305940766,,,,270.31603034841834
1561305940826,0.7182605266571045,9.911994934082031,0.8044517636299133,267.9315908185994
1561305940836,,,,267.2416460897797
1561305940896,,,,276.3046924013613
1561305940897,0.6991068720817566,9.883264541625977,1.1875240802764893,
1561305940906,,,,276.89671953823967
1561305940966,,,,272.5820480584076
1561305940968,0.7469909191131592,9.797073364257813,1.0534487962722778,
1561305940976,,,,273.2149948586035
1561305941036,,,,277.02780452879057
1561305941037,0.5363011956214905,9.710882186889648,0.7948749661445618,
1561305941047,,,,276.96687241120486
1561305941106,0.6991068720817566,9.77791976928711,0.7565677165985107,267.7261728793112
1561305941116,,,,266.2274449603028
1561305941176,0.6320692300796509,9.643844604492188,0.9097966551780701,273.34875045311986
1561305941187,,,,271.4100763892926
1561305941246,0.6320692300796509,9.797073364257813,0.9481038451194763,272.3889654407605
1561305941257,,,,275.5054031741189
1561305941316,0.6607996821403503,9.797073364257813,0.8140285611152649,270.84246034850787
1561305941327,,,,272.19439384187433
1561305941386,0.5267243981361389,9.979032516479492,1.1779472827911377,285.75093281594815
1561305941396,,,,282.965984653578
1561305941456,0.7565677165985107,9.624691009521484,0.689530074596405,261.1838693526254
1561305941466,,,,261.33351879734033
1561305941526,0.4884171485900879,9.720458984375,1.0630255937576294,283.21091523721464
1561305941536,,,,282.64917998930525
1561305941596,,,,268.6712388340092
1561305941597,0.7374141216278076,9.787496566772461,0.9289502501487732,
1561305941608,,,,268.5033049728861
1561305941666,,,,270.97473379197436
1561305941667,0.7374141216278076,9.873687744140625,1.0438719987869263,
1561305941677,,,,269.73289611783935
1561305941736,,,,267.5146487509051
1561305941737,0.6799532771110535,9.806650161743164,0.8331822156906128,
1561305941747,,,,269.70429128559533
1561305941806,0.6991068720817566,9.806650161743164,1.072602391242981,274.0871348835333
1561305941816,,,,273.1516653446192
1561305941876,0.689530074596405,9.77791976928711,0.9481038451194763,271.11731399089837
1561305941886,,,,269.69908668144774
1561305941946,0.6703764796257019,9.825803756713867,0.8523358106613159,268.38325756803397
1561305941956,,,,268.9871692340681
1561305942016,0.689530074596405,9.854534149169922,1.0534487962722778,272.45803231364766
1561305942026,,,,270.0505204048124
1561305942086,0.6129156351089478,9.768342971801758,0.8906430602073669,270.2338153613789
1561305942096,,,,270.63778006965015
1561305942156,0.6224924325942993,9.835380554199219,0.8331822156906128,268.85508703589846
1561305942166,,,,267.0786026441023
1561305942226,0.49799394607543945,9.720458984375,0.8906430602073669,274.6730080199695
1561305942236,,,,274.237979611353
1561305942296,0.8044517636299133,9.892841339111328,0.9097966551780701,260.5634696099347
1561305942306,,,,262.2037941806267
1561305942366,0.6703764796257019,9.883264541625977,0.9672574996948242,269.136128829677
1561305942376,,,,268.3781007752106
1561305942436,0.6512228846549988,9.710882186889648,1.158793568611145,272.1691836136479
1561305942446,,,,271.95193578671723
1561305942506,0.6320692300796509,9.749189376831055,0.9385270476341248,269.1548708687595
1561305942516,,,,267.4565443316358
1561305942576,0.6033388376235962,9.768342971801758,1.0438719987869263,270.70113690439115
1561305942586,,,,272.1554959145511
1561305942646,0.5937620401382446,9.749189376831055,1.0438719987869263,272.5730936804057
1561305942656,,,,272.6162809665277
1561305942716,0.6512228846549988,9.787496566772461,1.1779472827911377,272.03176703773636
1561305942726,,,,273.1248158709918
1561305942786,0.6224924325942993,9.883264541625977,1.072602391242981,272.9537879341747
1561305942797,,,,275.13230409070695
1561305942856,0.7086837291717529,9.835380554199219,1.1492167711257935,272.59217722894675
1561305942866,,,,268.7946740126897
1561305942926,0.727837324142456,9.787496566772461,1.3024457693099976,269.9197837539092
1561305942936,,,,272.8072257349646
1561305942996,0.6607996821403503,9.749189376831055,1.0630255937576294,272.146773762981
1561305943006,,,,274.3780941119866
1561305943066,0.6607996821403503,9.787496566772461,1.216254472732544,276.65823665317953
1561305943076,,,,275.3043224049537
1561305943136,0.5746083855628967,9.873687744140625,1.1013327836990356,277.6468997053497
1561305943146,,,,278.6364301915445
1561305943206,0.7661445140838623,9.84495735168457,1.158793568611145,271.4149736349275
1561305943216,,,,272.3310727573555
1561305943276,0.6320692300796509,9.710882186889648,1.0534487962722778,275.92308290224355
1561305943286,,,,276.8816521409306
1561305943346,0.6129156351089478,9.77791976928711,1.2545616626739502,280.69185267885473
1561305943356,,,,282.6768012743088
1561305943416,0.6320692300796509,9.787496566772461,1.0630255937576294,279.05813290109023
1561305943426,,,,275.7487423236789
1561305943486,0.6416460275650024,9.787496566772461,1.1875240802764893,277.20568997553437
1561305943496,,,,278.56454928071923
1561305943556,0.6703764796257019,9.768342971801758,1.2737152576446533,278.4880989733393
1561305943566,,,,277.82742160511316
1561305943626,0.6799532771110535,9.77791976928711,1.0438719987869263,273.98203193258513
1561305943637,,,,277.06488562579455
1561305943696,0.6512228846549988,9.806650161743164,1.4844050407409668,283.77478150414504
1561305943706,,,,285.6070002395685
1561305943766,0.5650315880775452,9.84495735168457,0.9959878921508789,283.0747144349754
1561305943777,,,,278.4659623302393
1561305943836,0.6033388376235962,9.768342971801758,1.3503297567367554,281.57873225201337
1561305943846,,,,283.47907529421855
1561305943906,0.6416460275650024,9.816226959228516,1.216254472732544,280.4342179433619
1561305943916,,,,279.23543778175457
1561305943976,0.6416460275650024,9.835380554199219,1.1109095811843872,277.6602868761229
1561305943986,,,,278.5105361447628
1561305944046,0.6129156351089478,9.77791976928711,1.1683704853057861,280.5631719148917
1561305944057,,,,282.3539450624315
1561305944116,0.6607996821403503,9.710882186889648,1.3120225667953491,282.11339946024196
1561305944126,,,,282.28129917041923
1561305944186,0.5650315880775452,9.835380554199219,1.3503297567367554,286.6589723151555
1561305944196,,,,288.003235506084
1561305944256,0.6799532771110535,9.825803756713867,1.158793568611145,280.88797473068246
1561305944266,,,,279.70254075871344
1561305944326,0.5937620401382446,9.730035781860352,1.4173674583435059,286.0538926867732
1561305944336,,,,285.76217530732197
1561305944396,0.6320692300796509,9.758766174316406,1.1779472827911377,281.62847651973857
1561305944406,,,,280.7236335490628
1561305944466,0.6799532771110535,9.758766174316406,1.235408067703247,279.52366493453997
1561305944477,,,,280.6897216598337
1561305944536,0.6416460275650024,9.892841339111328,1.292868971824646,283.0910659078484
1561305944547,,,,282.867035703072
1561305944606,0.6320692300796509,9.758766174316406,1.1204863786697388,280.799892611146
1561305944616,,,,279.90638775449247
1561305944676,0.5746083855628967,9.720458984375,1.3215993642807007,284.8345809765209
1561305944687,,,,285.2001327009
1561305944746,0.6703764796257019,9.797073364257813,1.2258312702178955,280.28322978156956
1561305944757,,,,280.6945027922527
1561305944816,0.6224924325942993,9.825803756713867,1.1875240802764893,282.2029773912067
1561305944827,,,,280.85172691675723
1561305944886,0.689530074596405,9.835380554199219,1.292868971824646,279.4979629326932
1561305944897,,,,277.5792944929449
1561305944956,0.5746083855628967,9.749189376831055,1.2066776752471924,281.15121705148397
1561305944967,,,,280.69959128318436
1561305945026,0.5841852426528931,9.825803756713867,1.2737152576446533,281.14519965482515
1561305945037,,,,281.25625853072955
1561305945096,0.6033388376235962,9.749189376831055,1.235408067703247,279.94917888964255
1561305945107,,,,280.9850658697342
1561305945166,0.6703764796257019,9.911994934082031,1.158793568611145,277.32305994623187
1561305945176,,,,279.1962803072429
1561305945236,0.6224924325942993,9.768342971801758,1.2641384601593018,282.45826937181425
1561305945247,,,,281.46772801762233
1561305945306,0.5937620401382446,9.739612579345703,1.2737152576446533,282.7255893155502
1561305945317,,,,284.7845635012289
1561305945376,0.6033388376235962,9.825803756713867,1.2066776752471924,283.6471935704492
1561305945387,,,,285.11722786475434
1561305945446,0.6224924325942993,9.758766174316406,1.37906014919281,286.26984277776154
1561305945457,,,,285.36379769379187
1561305945516,,,,281.7053776196037
1561305945517,0.7182605266571045,9.816226959228516,1.3694833517074585,
1561305945527,,,,282.4368157476313
1561305945586,0.6224924325942993,9.768342971801758,1.1683704853057861,283.4998527296737
1561305945596,,,,282.14272146234885
1561305945656,0.6320692300796509,9.787496566772461,1.3024457693099976,283.51389559860723
1561305945667,,,,284.0623666191484
1561305945726,0.5937620401382446,9.749189376831055,1.2832920551300049,285.35691286310845
1561305945737,,,,285.6864831509399
1561305945796,0.6320692300796509,9.883264541625977,1.3886369466781616,285.386863242619
1561305945806,,,,283.56944552712696
1561305945866,0.6607996821403503,9.739612579345703,1.4269442558288574,282.65232870651266
1561305945876,,,,281.02077409871504
1561305945936,0.6224924325942993,9.710882186889648,1.37906014919281,282.0115340189604
1561305945947,,,,283.98706378354905
1561305946006,0.6799532771110535,9.768342971801758,1.886630892753601,284.98569891190743
1561305946017,,,,286.10923087942865
1561305946076,0.689530074596405,9.816226959228516,1.4652514457702637,283.5434020158217
1561305946086,,,,283.4589398965453
1561305946146,0.6799532771110535,9.883264541625977,1.4939818382263184,284.13308639781474
1561305946157,,,,286.07061298986144
1561305946216,0.689530074596405,9.730035781860352,1.5131354331970215,285.67566413129464
1561305946226,,,,287.0498845319228
1561305946286,0.7086837291717529,9.797073364257813,0.9193734526634216,277.4170706699679
1561305946297,,,,276.82648470300444
1561305946356,0.7852981686592102,9.758766174316406,2.164358377456665,286.31640417733354
1561305946366,,,,285.6001427296418
1561305946426,0.6512228846549988,9.739612579345703,1.1204863786697388,282.4066194813106
1561305946436,,,,282.731285693318
1561305946496,0.7182605266571045,9.835380554199219,1.3024457693099976,282.7882153200501
1561305946507,,,,282.4460638237674
1561305946566,0.727837324142456,9.749189376831055,1.50355863571167,284.04958733521136
1561305946577,,,,285.7348750412095
1561305946636,0.6703764796257019,9.77791976928711,1.4173674583435059,287.16696080448605
1561305946646,,,,287.5900568726225
1561305946706,0.727837324142456,9.758766174316406,1.3120225667953491,284.21808810203555
1561305946717,,,,283.1505841762759
1561305946776,,,,288.9042808915813
1561305946777,0.6320692300796509,9.911994934082031,1.5131354331970215,
1561305946787,,,,289.7379259703489
1561305946846,0.6991068720817566,9.768342971801758,1.4173674583435059,286.2236160574589
1561305946856,,,,282.26813739588863
1561305946916,0.6416460275650024,9.768342971801758,1.2832920551300049,283.1443072324287
1561305946927,,,,282.5943608910268
1561305946986,0.6033388376235962,9.749189376831055,1.359906554222107,284.88756958410187
1561305946997,,,,285.81018470699803
1561305947056,0.8523358106613159,9.787496566772461,1.599326729774475,279.0254504459117
1561305947066,,,,281.780031587232
1561305947126,0.8044517636299133,9.758766174316406,1.2832920551300049,279.98501689221763
1561305947137,,,,279.96820779667024
1561305947196,0.7661445140838623,9.816226959228516,1.50355863571167,283.99614793514513
1561305947206,,,,284.04046903266936
1561305947266,0.7182605266571045,9.710882186889648,1.2449848651885986,282.6703125945973
1561305947276,,,,282.03001651085447
1561305947336,0.7948749661445618,9.730035781860352,1.3407529592514038,280.47188643663446
1561305947346,,,,281.65820150300647
1561305947406,0.7852981686592102,9.749189376831055,1.6089035272598267,284.90536905707893
1561305947416,,,,283.2274579553844
1561305947476,0.6512228846549988,,1.867477297782898,288.9872335390511
1561305947477,,9.730035781860352,,
1561305947486,,,,290.2313456661798
1561305947546,0.8140285611152649,9.90241813659668,1.436521053314209,281.87838631128017
1561305947556,,,,282.05713919204857
1561305947616,0.8140285611152649,9.615114212036133,1.4652514457702637,282.0517365124151
1561305947626,,,,281.97528620503516
1561305947686,0.7086837291717529,9.653421401977539,1.9057846069335938,288.5043118439745
1561305947696,,,,289.70270268479914
1561305947756,0.7086837291717529,9.911994934082031,1.5131354331970215,287.6817794829866
1561305947766,,,,285.8568827103534
1561305947826,0.7182605266571045,9.768342971801758,1.6184803247451782,286.227919076636
1561305947836,,,,286.6441917857916
1561305947896,0.6703764796257019,9.816226959228516,1.50355863571167,287.46767354307417
1561305947908,,,,285.57885302999887
1561305947966,0.7852981686592102,9.749189376831055,1.3215993642807007,279.36158454553555
1561305947976,,,,281.33520868734576
1561305948036,0.7948749661445618,9.739612579345703,1.4077905416488647,282.04136145506584
1561305948046,,,,280.56539855656115
1561305948106,0.8044517636299133,9.787496566772461,1.6184803247451782,282.2860120009465
1561305948116,,,,280.4834157959534
1561305948176,0.9193734526634216,9.672574996948242,1.3982137441635132,274.3590720351482
1561305948186,,,,275.7611732679684
1561305948246,0.7757213711738586,9.84495735168457,1.1683704853057861,277.8669205890833
1561305948256,,,,278.65353298522615
1561305948316,0.8619126081466675,9.739612579345703,1.50355863571167,279.700635135935
1561305948326,,,,277.77448763904556
1561305948386,0.8236053586006165,9.77791976928711,1.2832920551300049,276.67898676787803
1561305948396,,,,276.6676896349908
1561305948456,0.8523358106613159,9.749189376831055,1.2449848651885986,275.0411757068007
1561305948466,,,,275.23558338114674
1561305948526,0.8140285611152649,9.768342971801758,1.4077905416488647,278.7463006145333
1561305948536,,,,279.9570745883231
1561305948596,0.9002198576927185,9.883264541625977,1.2545616626739502,275.0515575943391
1561305948606,,,,276.48774830130685
1561305948666,0.8331822156906128,9.758766174316406,1.50355863571167,281.71590294111473
1561305948676,,,,282.6431899134032
1561305948736,0.8810662031173706,9.730035781860352,1.2449848651885986,277.6854629534036
1561305948746,,,,276.0742554791434
1561305948806,0.9576807022094727,9.730035781860352,1.3503297567367554,274.95410445526136
1561305948816,,,,275.5147468729035
1561305948876,0.8523358106613159,9.873687744140625,1.235408067703247,277.7389365044156
1561305948886,,,,277.51990599811165
1561305948946,0.871489405632019,9.787496566772461,1.2832920551300049,277.4268036895352
1561305948956,,,,279.9942376475972
1561305949016,0.9289502501487732,9.730035781860352,1.2832920551300049,277.88032825042404
1561305949026,,,,277.0740995509849
1561305949086,0.8619126081466675,9.835380554199219,1.3120225667953491,280.00603338429374
1561305949097,,,,278.86714715151834
1561305949156,0.9768342971801758,9.701305389404297,1.1013327836990356,271.19510301535564
1561305949166,,,,270.87656348303375
1561305949226,0.5937620401382446,10.237606048583984,1.5322890281677246,291.23200936072163
1561305949236,,,,292.72864041165485
1561305949296,1.015141487121582,9.739612579345703,1.6280571222305298,278.23964401209093
1561305949306,,,,278.34311454782744
1561305949366,0.8140285611152649,9.768342971801758,0.6703764796257019,267.0558239632203
1561305949376,,,,264.43426075598603
1561305949436,0.9481038451194763,9.701305389404297,1.292868971824646,273.7961346739449
1561305949446,,,,273.4032485325074
1561305949506,1.0630255937576294,9.768342971801758,1.3886369466781616,271.03830919276885
1561305949516,,,,268.67810317412506
1561305949576,0.9289502501487732,9.682151794433594,1.091755986213684,268.28363242880016
1561305949586,,,,269.61396886401104
1561305949646,0.8044517636299133,9.806650161743164,0.7661445140838623,266.41992652130295
1561305949656,,,,265.7086169607595
1561305949716,0.8619126081466675,9.90241813659668,1.2545616626739502,274.274418670575
1561305949726,,,,274.5031070643654
1561305949786,1.1013327836990356,9.385271072387695,0.6033388376235962,250.197195883958
1561305949796,,,,251.18199304905795
1561305949856,0.6129156351089478,9.892841339111328,1.0534487962722778,282.54464394405824
1561305949866,,,,281.94649695768356
1561305949926,0.7948749661445618,10.02691650390625,1.3503297567367554,278.7467992183427
1561305949936,,,,277.1904791442528
1561305949996,0.9097966551780701,9.758766174316406,1.1971008777618408,270.5998861801349
1561305950006,,,,268.61053211266614
1561305950066,0.9097966551780701,9.53849983215332,0.7565677165985107,258.52525919933294
1561305950076,,,,259.052112671151
1561305950136,0.8427590131759644,9.710882186889648,1.3694833517074585,273.6646671928005
1561305950146,,,,275.01119800653345
1561305950206,0.2106897532939911,10.055646896362305,0.7757213711738586,299.35074786860315
1561305950216,,,,296.59806551987214
1561305950276,0.6129156351089478,9.911994934082031,1.235408067703247,279.85196480718577
1561305950286,,,,277.6898069537157
1561305950346,0.727837324142456,9.624691009521484,0.35434186458587646,245.41451984219668
1561305950356,,,,246.89978545835095
1561305950416,0.6416460275650024,9.797073364257813,0.7086837291717529,267.0318704898011
1561305950426,,,,265.8047723638949
1561305950486,0.6799532771110535,9.835380554199219,0.5841852426528931,259.34216348444477
1561305950496,,,,259.9348463194834
1561305950556,0.6607996821403503,9.59596061706543,0.7086837291717529,265.31370225313856
1561305950566,,,,264.6956657559008
1561305950626,0.6416460275650024,9.701305389404297,0.8044517636299133,268.6010586402873
1561305950636,,,,269.53975885867885
1561305950696,0.507570743560791,9.59596061706543,0.9193734526634216,278.9747021403785
1561305950706,,,,274.74036051537496
1561305950766,0.19153612852096558,10.218452453613281,0.363918662071228,282.3391167217434
1561305950776,,,,281.4195137122712
1561305950836,0.871489405632019,9.318233489990234,1.3311761617660522,263.9423095508267
1561305950846,,,,264.86499980580373
1561305950906,-0.12449848651885986,10.5344877243042,0.009576806798577309,39.9266835858208
1561305950918,,,,38.79199108919573
1561305950976,0.47884035110473633,9.739612579345703,0.5267243981361389,263.63255364177746
1561305950986,,,,260.0609794228861
1561305951046,0.727837324142456,9.854534149169922,-0.028730420395731926,213.12253291815694
1561305951056,,,,210.73476708621217
1561305951116,0.22026655077934265,9.682151794433594,0.26815059781074524,263.7335584792236
1561305951126,,,,264.3791889407082
1561305951186,0.5841852426528931,9.825803756713867,0.363918662071228,243.02694525554864
1561305951197,,,,243.26134368748518
1561305951256,0.3256114423274994,9.873687744140625,-0.22026655077934265,182.96862743076304
1561305951266,,,,184.484656218939
1561305951326,0.47884035110473633,10.362105369567871,0.38307225704193115,251.86276483382233
1561305951336,,,,251.94243216030134
1561305951396,0.35434186458587646,9.643844604492188,-0.3447650372982025,175.33829161739592
1561305951406,,,,176.9015033523584
1561305951466,0.3926490843296051,9.500192642211914,0.20111294090747833,243.67126432071268
1561305951477,,,,243.98777528685105
1561305951536,0.6416460275650024,9.84495735168457,0.3447650372982025,242.67745813609747
1561305951546,,,,240.7545139979287
1561305951606,0.2777273952960968,9.768342971801758,0.507570743560791,274.32606856107867
1561305951617,,,,269.4470731916418
1561305951676,0.5554547905921936,9.797073364257813,0.10534487664699554,221.25137327582092
1561305951687,,,,226.20092449938397
1561305951746,0.507570743560791,9.787496566772461,0.33518823981285095,247.304747374241
1561305951757,,,,248.12534679169386
1561305951816,0.6607996821403503,9.864110946655273,0.33518823981285095,240.81471528527322
1561305951827,,,,237.7713469156556
1561305951886,0.6416460275650024,9.90241813659668,0.07661445438861847,219.80510803982736
1561305951896,,,,218.71022871587434
1561305951956,0.2777273952960968,9.749189376831055,0.047884032130241394,223.61181835108562
1561305951967,,,,225.50976399689205
1561305952026,0.6703764796257019,9.77791976928711,0.49799394607543945,246.90452560963496
1561305952037,,,,248.32668027785832
1561305952096,0.6033388376235962,9.682151794433594,0.3447650372982025,242.91543558715904
1561305952106,,,,242.94242849475893
1561305952166,,,,259.9723235674593
1561305952168,0.6129156351089478,,0.7182605266571045,
1561305952169,,9.854534149169922,,
1561305952177,,,,261.17106274793156
1561305952236,0.19153612852096558,9.825803756713867,0.4213795065879822,281.50858620923736
1561305952247,,,,280.92435231820195
1561305952306,0.45010992884635925,9.854534149169922,0.2298433631658554,242.5306227293205
1561305952317,,,,241.88484200367418
1561305952376,,,,293.896841816348
1561305952378,,,0.6799532771110535,
1561305952379,0.10534487664699554,9.47146224975586,,
1561305952387,,,,295.0880746189224
1561305952446,0.38307225704193115,9.758766174316406,0.6416460275650024,272.1887521056199
1561305952457,,,,271.73509777113685
1561305952516,0.22026655077934265,,0.9097966551780701,287.7416051099267
1561305952517,,9.883264541625977,,
1561305952527,,,,290.33520552269897
1561305952586,0.45010992884635925,9.950302124023438,0.5650315880775452,266.9132642548638
1561305952597,,,,267.07277649274033
1561305952656,0.45010992884635925,9.825803756713867,0.7948749661445618,274.3590447143915
1561305952666,,,,276.677299711153
1561305952726,0.40222588181495667,9.835380554199219,0.8810662031173706,281.284357928975
1561305952737,,,,283.4888083137858
1561305952796,0.43095630407333374,9.816226959228516,0.5554547905921936,272.32202958689436
1561305952806,,,,271.29633324904444
1561305952866,0.181959331035614,9.691728591918945,0.8044517636299133,295.8685125240556
1561305952877,,,,293.20766206871536
1561305952936,0.40222588181495667,9.96945571899414,0.5554547905921936,270.8974911826507
1561305952947,,,,270.3322793684538
1561305953006,,,0.9864110946655273,291.2824571379314
1561305953007,0.22026655077934265,9.797073364257813,,
1561305953016,,,,289.5056312366767
1561305953076,0.4118026793003082,9.825803756713867,0.7661445140838623,274.6756649635566
1561305953087,,,,275.877744106533
1561305953146,0.31603461503982544,9.710882186889648,0.363918662071228,266.43031523903056
1561305953156,,,,265.3929802588349
1561305953216,0.1149216815829277,9.710882186889648,0.689530074596405,295.5412235194069
1561305953226,,,,292.91987204803684
1561305953286,0.2585737705230713,9.806650161743164,0.507570743560791,276.1634304289471
1561305953296,,,,275.98272411407606
1561305953356,0.1628057211637497,9.883264541625977,0.6607996821403503,288.44802425502445
1561305953367,,,,289.5062186329454
1561305953426,0.2777273952960968,9.806650161743164,0.6033388376235962,278.472498821275
1561305953437,,,,279.9598681356936
1561305953496,0.24899697303771973,9.816226959228516,0.35434186458587646,271.5284503977981
1561305953507,,,,269.7778660833347
1561305953566,0.13407529890537262,9.720458984375,0.545877993106842,290.14864573570924
1561305953577,,,,288.1797754055614
1561305953636,0.1628057211637497,9.77791976928711,0.35434186458587646,278.7295939718234
1561305953646,,,,281.0476304025315
1561305953706,0.15322890877723694,9.911994934082031,0.5554547905921936,288.88820945646427
1561305953716,,,,288.6573763832745
1561305953776,0.2777273952960968,9.940725326538086,0.4884171485900879,274.3613874692768
1561305953787,,,,273.81292327892476
1561305953846,0.06703764945268631,9.634267807006836,0.49799394607543945,296.62493548406695
1561305953856,,,,298.1782297843546
1561305953916,0.3064578175544739,9.892841339111328,0.28730419278144836,259.40034986598414
1561305953926,,,,258.47798062989807
1561305953986,0.2106897532939911,9.854534149169922,0.7852981686592102,287.1271339714357
1561305953996,,,,288.30359307483536
1561305954056,0.08619125932455063,9.758766174316406,0.5650315880775452,296.8354350840976
1561305954066,,,,296.28360361048476
1561305954126,0.3447650372982025,9.806650161743164,0.5554547905921936,272.036575490912
1561305954136,,,,273.57386665797435
1561305954196,0.10534487664699554,9.720458984375,0.6416460275650024,296.59170661375487
1561305954207,,,,297.41322810674563
1561305954266,0.33518823981285095,9.931148529052734,0.507570743560791,273.1907135361041
1561305954276,,,,272.125238176528
1561305954336,0.15322890877723694,9.873687744140625,0.5746083855628967,291.01715893018974
1561305954346,,,,289.2215909898526
1561305954406,0.22026655077934265,9.854534149169922,0.5841852426528931,283.0679115665621
1561305954416,,,,285.26986893232583
1561305954476,0.4405331015586853,9.873687744140625,0.5267243981361389,265.3326082167611
1561305954486,,,,263.8482441855773
1561305954546,0.13407529890537262,9.691728591918945,0.5267243981361389,290.9250948103671
1561305954557,,,,291.4285617144671
1561305954616,0.047884032130241394,9.854534149169922,0.8236053586006165,300.63521275334824
1561305954626,,,,300.49444938474346
1561305954686,0.49799394607543945,10.065223693847656,0.5746083855628967,262.7597510884982
1561305954696,,,,261.00468616993925
1561305954756,0.2106897532939911,9.77791976928711,0.26815059781074524,267.32521345427483
1561305954766,,,,264.28372338667896
1561305954826,0.2968810200691223,9.749189376831055,0.5650315880775452,271.94769423924265
1561305954836,,,,272.3982203470859
1561305954896,0.10534487664699554,9.77791976928711,0.8236053586006165,291.57266504557606
1561305954907,,,,293.07251311560833
1561305954966,0.22026655077934265,,0.4596867263317108,277.20170797524827
1561305954967,,9.90241813659668,,
1561305954976,,,,278.9473745535093
1561305955036,0.17238251864910126,9.730035781860352,0.6512228846549988,288.3501203234615
1561305955047,,,,288.3847630429318
1561305955106,0.2968810200691223,9.864110946655273,0.6033388376235962,276.85739130899873
1561305955116,,,,277.0909086465323
1561305955176,0.2298433631658554,9.730035781860352,0.5171475410461426,280.25901676096186
1561305955186,,,,280.0229449326787
1561305955246,0.20111294090747833,9.797073364257813,0.363918662071228,276.39510361540476
1561305955256,,,,277.97436629491676
1561305955316,0.09576806426048279,9.940725326538086,0.8140285611152649,297.4860857346222
1561305955326,,,,297.70597001457236
1561305955386,0.3256114423274994,9.940725326538086,0.45010992884635925,270.09165180399424
1561305955396,,,,269.76299676151154
1561305955455,,,,286.9991225660113
1561305955456,0.19153612852096558,9.59596061706543,0.5841852426528931,
1561305955466,,,,286.36955670945457
1561305955526,0.26815059781074524,9.854534149169922,0.4118026793003082,272.47706122067535
1561305955536,,,,272.38733302554886
1561305955596,0.23942017555236816,9.84495735168457,0.6607996821403503,283.8751852849442
1561305955606,,,,285.79351221523405
1561305955666,0.17238251864910126,9.873687744140625,0.43095630407333374,285.93144105533327
1561305955676,,,,284.78115523683306
1561305955736,0.09576806426048279,9.758766174316406,0.6224924325942993,296.817936139444
1561305955746,,,,297.50514879259566
1561305955806,0.2968810200691223,9.749189376831055,0.6607996821403503,280.75398690973435
1561305955816,,,,279.0343501824002
1561305955876,0.38307225704193115,9.940725326538086,0.4596867263317108,264.619584278736
1561305955886,,,,262.40016211926456
1561305955946,0.22026655077934265,9.730035781860352,0.5554547905921936,280.48075202217717
1561305955956,,,,280.5877605959038
1561305956016,0.4213795065879822,9.988609313964844,0.7469909191131592,270.71843094336964
1561305956026,,,,270.8837966533648
1561305956086,0.20111294090747833,9.758766174316406,0.5937620401382446,283.492715181991
1561305956097,,,,283.88857245571745
1561305956156,0.26815059781074524,9.825803756713867,0.5554547905921936,276.847801723404
1561305956167,,,,276.44007358090016
1561305956226,0.2968810200691223,9.77791976928711,0.6320692300796509,276.30531394857576
1561305956237,,,,276.3360361394625
1561305956296,0.33518823981285095,9.816226959228516,0.49799394607543945,268.47866848054986
1561305956306,,,,269.50113413892245
1561305956366,0.28730419278144836,9.797073364257813,0.5554547905921936,275.87201357781936
1561305956376,,,,275.4352366407754
1561305956436,0.2777273952960968,9.816226959228516,0.6703764796257019,279.4551717975431
1561305956447,,,,282.0892479113368
1561305956506,0.2968810200691223,9.797073364257813,0.5841852426528931,278.19367000878754
1561305956517,,,,278.51381463556436
1561305956576,0.4118026793003082,9.854534149169922,0.4405331015586853,262.880146832998
1561305956587,,,,261.76033048838525
1561305956646,0.12449848651885986,9.749189376831055,0.7182605266571045,294.263233653995
1561305956656,,,,294.57371356309625
1561305956716,0.38307225704193115,9.940725326538086,0.5650315880775452,270.27268596794545
1561305956727,,,,269.1891379278254
1561305956786,0.24899697303771973,9.749189376831055,0.5937620401382446,280.86971763503107
1561305956798,,,,280.5128129301412
1561305956856,0.3064578175544739,9.749189376831055,0.3926490843296051,266.5187935095389
1561305956867,,,,267.08906649391076
1561305956926,,,,282.88493079869744
1561305956928,0.2585737705230713,9.739612579345703,0.6991068720817566,
1561305956936,,,,282.26633422594773
1561305956996,0.3064578175544739,9.921571731567383,0.507570743560791,272.71626127559836
1561305957007,,,,274.51365970663306
1561305957066,0.363918662071228,9.84495735168457,0.5650315880775452,272.1464390837117
1561305957076,,,,271.23872060339534
1561305957136,0.28730419278144836,9.816226959228516,0.507570743560791,275.2758405161148
1561305957146,,,,273.87277622662157
1561305957206,0.3064578175544739,9.864110946655273,0.6033388376235962,275.6869700928254
1561305957216,,,,274.67692854855306
1561305957276,0.3064578175544739,9.768342971801758,0.4692635238170624,269.4076015284283
1561305957287,,,,268.7786777096535
1561305957346,0.19153612852096558,9.77791976928711,0.6033388376235962,283.81887037523745
1561305957356,,,,285.0711309180459
1561305957416,0.2777273952960968,9.883264541625977,0.5171475410461426,274.74142602488547
1561305957426,,,,276.1851162795619
1561305957486,0.28730419278144836,9.797073364257813,0.5554547905921936,276.72280926159283
1561305957497,,,,276.8712019515005
1561305957556,0.26815059781074524,9.77791976928711,0.38307225704193115,270.5377861002011
1561305957566,,,,269.699537473933
1561305957626,0.35434186458587646,9.825803756713867,0.6703764796257019,274.44330192799276
1561305957636,,,,276.84513794962777
1561305957696,0.28730419278144836,9.873687744140625,0.5841852426528931,279.4630128547102
1561305957706,,,,279.0051101425634
1561305957766,0.3447650372982025,9.835380554199219,0.5841852426528931,274.359065204959
1561305957776,,,,276.79040081361927
1561305957835,,,,272.8192741886605
1561305957836,0.2968810200691223,9.691728591918945,0.4118026793003082,
