timestamp,AccX,AccY,AccZ,CompassSensor
1561309561536,0.5363011956214905,9.988609313964844,2.451662540435791,116.44774489538565
1561309561611,0.181959331035614,9.979032516479492,2.2026655673980713,123.83572829415667
1561309561678,0.009576806798577309,9.720458984375,2.298433542251587,127.72871755501049
1561309561735,0.3256114423274994,9.375694274902344,1.2832920551300049,113.66548782754847
1561309561749,,,,112.96484019229939
1561309561803,0.07661445438861847,,,
1561309561804,,9.500192642211914,1.3311761617660522,123.52783702675083
1561309561805,,,,122.7716941044954
1561309561874,-0.07661445438861847,9.940725326538086,2.1547815799713135,128.90338714884763
1561309561893,,,,128.97686632393862
1561309561949,0.20111294090747833,9.193734169006348,0.9672574996948242,113.99528351162252
1561309562013,-0.019153613597154617,,,
1561309562015,,9.184157371520996,1.072602391242981,126.14236513914
1561309562017,,,,126.60649015362071
1561309562085,-0.009576806798577309,,,
1561309562086,,9.749189376831055,1.7334020137786865,126.83963183074994
1561309562161,0.8427590131759644,,0.8140285611152649,
1561309562162,,8.159439086914063,,81.71859621132364
1561309562230,-0.23942017555236816,8.456320762634277,-0.363918662071228,270.5988753121377
1561309562306,-0.13407529890537262,9.720458984375,0.7374141216278076,137.8445145837445
1561309562372,0.6991068720817566,,3.179499864578247,
1561309562373,,10.78348445892334,,120.07499881639097
1561309562438,-0.6416460275650024,10.78348445892334,-2.250549554824829,288.28835492279705
1561309562504,1.5514427423477173,10.189722061157227,1.9249382019042969,96.07295592196829
1561309562505,,,,96.26395533191851
1561309562575,1.6950948238372803,,1.0247182846069336,
1561309562576,,10.955866813659668,,75.31172167550073
1561309562577,,,,75.55238339090619
1561309562643,0.9481038451194763,,2.8347349166870117,
1561309562644,,9.825803756713867,,116.55160475190485
1561309562645,,,,116.16545317698902
1561309562714,1.4748282432556152,8.810662269592285,1.6089035272598267,92.65249963846344
1561309562718,,,,93.10613348237905
1561309562788,0.19153612852096558,6.789956092834473,0.9097966551780701,121.09934960697444
1561309562854,1.2258312702178955,8.848969459533691,-0.9959878921508789,1.2985835260897147
1561309562855,,,,2.308448339217307
1561309562930,0.2585737705230713,,0.9481038451194763,
1561309562931,,10.113107681274414,,117.7409182713225
1561309563001,0.6129156351089478,11.262324333190918,-0.6129156351089478,355.9024619414299
1561309563064,2.0398597717285156,11.693281173706055,1.3311761617660522,78.46228986414172
1561309563066,,,,78.87303012006959
1561309563140,-0.5171475410461426,,,
1561309563141,,11.042057991027832,-0.689530074596405,273.32147067757484
1561309563206,0.047884032130241394,,,
1561309563208,,9.327810287475586,0.8236053586006165,130.10484474460955
1561309563275,-0.2106897532939911,,,
1561309563277,,9.069235801696777,2.3750481605529785,140.60837795214687
1561309563344,1.0055646896362305,6.6846113204956055,0.7565677165985107,84.87180085298422
1561309563345,,,,87.58214285905035
1561309563414,0.12449848651885986,,,
1561309563416,,9.346963882446289,-0.6607996821403503,326.65563801921223
1561309563428,,,,330.2712498827772
1561309563499,3.4380736351013184,8.96389102935791,-0.9097966551780701,42.5926976641735
1561309563554,-1.436521053314209,13.48414421081543,1.1109095811843872,194.46513353983676
1561309563570,,,,196.86329491969832
1561309563624,2.403778553009033,10.668562889099121,0.31603461503982544,66.28975895177678
1561309563640,,,,68.70750248398872
1561309563693,0.07661445438861847,,,
1561309563695,,,-0.5841852426528931,334.5678879556532
1561309563696,,9.481039047241211,,334.99421128817244
1561309563764,1.8195933103561401,,,
1561309563766,,,2.5091233253479004,115.79864469780267
1561309563767,,7.65186882019043,,117.44283515556481
1561309563836,1.2832920551300049,,,
1561309563837,,7.144298076629639,-0.6224924325942993,35.84522550010422
1561309563922,1.072602391242981,,,
1561309563925,,,2.1739351749420166,
1561309563926,,10.065223693847656,,125.1328905005688
1561309563986,1.3982137441635132,,0.19153612852096558,
1561309563987,,12.172121047973633,,61.72906405804082
1561309564051,-0.28730419278144836,,,
1561309564052,,,0.2777273952960968,
1561309564053,,10.486603736877441,,183.0053601881193
1561309564120,0.8906430602073669,10.323798179626465,1.1492167711257935,99.53345760457694
1561309564189,-0.6033388376235962,,,
1561309564191,,,-0.727837324142456,272.00282069603384
1561309564192,,9.682151794433594,,270.4798660960394
1561309564261,0.22026655077934265,,,
1561309564262,,,1.216254472732544,
1561309564263,,8.255207061767578,,124.6353522006684
1561309564330,2.011129379272461,,1.1779472827911377,
1561309564331,,7.613561630249023,,80.4545672525752
1561309564402,-0.33518823981285095,,,
1561309564403,,,2.3367409706115723,
1561309564404,,11.137825965881348,,143.72178308151376
1561309564465,0.8331822156906128,,,
1561309564466,,,1.9919757843017578,
1561309564467,,11.367670059204102,,115.72685940962583
1561309564547,1.7142484188079834,,,
1561309564548,,10.496180534362793,-0.9959878921508789,17.90299644675582
1561309564619,-0.17238251864910126,10.994174003601074,2.7964274883270264,144.56585785914393
1561309564685,1.3886369466781616,8.322244644165039,1.0247182846069336,90.48553333181769
1561309564747,0.5554547905921936,,1.0821791887283325,112.48287472370663
1561309564748,,8.676587104797363,,
1561309564819,0.5171475410461426,,2.0685901641845703,125.61757438445125
1561309564820,,10.333374977111816,,124.84824919709769
1561309564886,1.5705963373184204,10.515334129333496,-0.09576806426048279,43.840655187804884
1561309564960,0.047884032130241394,,,
1561309564962,,,-0.6033388376235962,
1561309564963,,10.72602367401123,,316.3218623333064
1561309565027,1.0247182846069336,,,
1561309565030,,11.884817123413086,4.07014274597168,128.07059584372632
1561309565095,0.40222588181495667,,0.3926490843296051,
1561309565096,,9.289502143859863,,95.67808219548232
1561309565164,1.4077905416488647,,,
1561309565166,,,0.5363011956214905,
1561309565167,,6.914454460144043,,81.25316663071146
1561309565246,-0.9385270476341248,,,
1561309565247,,,0.2777273952960968,215.76203220215166
1561309565248,,9.461885452270508,,215.72692502981783
1561309565317,1.5322890281677246,,,
1561309565318,,9.442731857299805,2.8634653091430664,126.55288682901445
1561309565378,-0.06703764945268631,,2.3558945655822754,
1561309565379,,13.292608261108398,,149.47639504216792
1561309565455,4.558559894561768,8.9064302444458,-1.4460978507995605,66.9221320160824
1561309565523,-1.9057846069335938,13.15853214263916,2.4899697303771973,183.90288802619398
1561309565592,-0.24899697303771973,,-0.13407529890537262,262.8937935509597
1561309565593,,7.000645637512207,,
1561309565657,2.3558945655822754,6.01423454284668,3.399766445159912,132.73232289566508
1561309565742,1.139639973640442,,,
1561309565745,,,0.9768342971801758,
1561309565746,,10.457873344421387,,102.89140399679775
1561309565816,2.671929121017456,,,
1561309565817,,9.911994934082031,-0.2585737705230713,60.575936880845916
1561309565873,-0.35434186458587646,10.898406028747559,2.1739351749420166,152.7062002553702
1561309565935,0.2298433631658554,,,
1561309565937,,10.994174003601074,-0.1628057211637497,12.336308603378086
1561309566008,0.9959878921508789,,,
1561309566010,,8.801085472106934,0.689530074596405,91.58966756209611
1561309566083,0.3256114423274994,,1.742978811264038,
1561309566084,,9.720458984375,,137.39047092847875
1561309566151,-0.6129156351089478,,,
1561309566152,,9.41400146484375,0.3926490843296051,195.89245183107266
1561309566214,0.6991068720817566,,,
1561309566216,,,1.9057846069335938,
1561309566218,,8.552088737487793,,131.85062743608646
1561309566292,3.1028854846954346,,1.7621324062347412,
1561309566293,,11.185709953308105,,101.62514839637993
1561309566358,-1.37906014919281,12.411541938781738,0.40222588181495667,211.83531546717631
1561309566430,0.28730419278144836,10.793061256408691,2.6431987285614014,148.20410838471298
1561309566494,-0.5746083855628967,,,
1561309566496,,9.701305389404297,-0.33518823981285095,265.1207972204099
1561309566565,1.3982137441635132,7.785943984985352,0.727837324142456,101.76572734987712
1561309566596,,,,99.63012527190011
1561309566639,0.5937620401382446,8.53293514251709,0.2106897532939911,82.47161090693919
1561309566704,1.216254472732544,10.381258964538574,1.8387469053268433,124.85585802783311
1561309566707,,,,125.65784517979765
1561309566775,1.8195933103561401,11.051634788513184,2.5665841102600098,127.39454371967844
1561309566777,,,,124.5323529479846
1561309566845,-0.33518823981285095,9.567230224609375,-3.7445313930511475,289.68168619272296
1561309566914,0.2298433631658554,9.998186111450195,2.31758713722229,146.73763944915456
1561309566916,,,,146.14837170870086
1561309566995,0.5746083855628967,9.346963882446289,-0.8619126081466675,357.0272039196513
1561309567067,1.158793568611145,,,
1561309567069,,9.682151794433594,2.2601263523101807,126.37289768400626
1561309567134,1.7046716213226318,,0.49799394607543945,
1561309567135,,9.816226959228516,,78.04970545713792
1561309567205,-0.871489405632019,,,
1561309567206,,12.42111873626709,-1.742978811264038,283.3138325276284
1561309567279,-0.6416460275650024,9.346963882446289,0.7661445140838623,184.52041908943318
1561309567344,0.047884032130241394,,,
1561309567348,,,0.5554547905921936,147.97237372655277
1561309567349,,11.291055679321289,,149.1125645254597
1561309567422,-0.05746084079146385,9.059659004211426,0.009576806798577309,232.69412579612663
1561309567479,2.2888567447662354,,,
1561309567481,,7.536946773529053,0.9672574996948242,103.94185977038904
1561309567551,0.2106897532939911,8.638279914855957,-1.742978811264038,329.83294639845377
1561309567623,1.8579005002975464,,0.6224924325942993,
1561309567624,,8.916007041931152,,93.03755838311207
1561309567684,-2.719813108444214,11.616666793823242,-3.2752678394317627,266.05105532498726
1561309567686,,,,261.863889816581
1561309567760,1.235408067703247,9.509769439697266,1.091755986213684,107.45841681551599
1561309567843,0.20111294090747833,10.96544361114502,0.181959331035614,95.39283300517508
1561309567906,0.1149216815829277,7.642292022705078,-0.6416460275650024,319.5319795262261
1561309567985,-2.2026655673980713,,,
1561309567986,,12.919112205505371,1.944091796875,176.14665816604526
1561309568061,2.7964274883270264,12.124237060546875,2.5282769203186035,96.04109308949018
1561309568113,1.4844050407409668,,1.292868971824646,
1561309568114,,11.27190113067627,,77.79851842022151
1561309568116,,,,69.30420147025939
1561309568186,3.801992416381836,,,
1561309568187,,9.184157371520996,0.7661445140838623,60.10442160168327
1561309568257,-1.50355863571167,11.070788383483887,-0.26815059781074524,194.38774749654044
1561309568328,4.529829502105713,6.818686485290527,1.0247182846069336,153.9144743799238
1561309568405,0.4692635238170624,11.233593940734863,0.4118026793003082,7.793075088255307
1561309568467,2.853888511657715,9.615114212036133,0.31603461503982544,274.8347605598937
1561309568539,2.2601263523101807,,,
1561309568540,,,-0.8523358106613159,
1561309568541,,9.854534149169922,,248.53131274539192
1561309568610,-2.3271639347076416,10.735600471496582,3.2082302570343018,78.8682763084073
1561309568678,1.235408067703247,,,
1561309568679,,7.65186882019043,0.3926490843296051,269.81761095411497
1561309568755,-0.363918662071228,10.553641319274902,0.5267243981361389,18.06281775069226
1561309568821,-1.5897499322891235,,1.1300631761550903,34.90182269646908
1561309568822,,9.710882186889648,,24.68531965106513
1561309568897,-1.3982137441635132,9.634267807006836,-0.09576806426048279,66.38094880738561
1561309568970,0.8140285611152649,9.682151794433594,3.0358476638793945,287.8268800217143
1561309569040,0.5554547905921936,,,
1561309569042,,,0.9672574996948242,277.6269897039191
1561309569043,,10.515334129333496,,273.66694847598325
1561309569109,2.38462495803833,,,
1561309569110,,10.47702693939209,1.3982137441635132,239.69080765734765
1561309569166,2.5091233253479004,,,
1561309569167,,,1.3694833517074585,
1561309569169,,8.20732307434082,,232.68670821068804
1561309569237,2.38462495803833,,,
1561309569238,,9.528923034667969,3.313575267791748,246.9412583669913
1561309569314,0.2968810200691223,,,
1561309569316,,10.515334129333496,1.0055646896362305,271.4391525045894
1561309569374,0.9864110946655273,,,
1561309569376,,,2.2026655673980713,255.34692629171582
1561309569377,,9.078812599182129,,252.09273730317665
1561309569454,0.507570743560791,8.705317497253418,1.072602391242981,255.02188441930411
1561309569514,0.8236053586006165,,2.719813108444214,252.90990113547696
1561309569515,,7.987056732177734,,
1561309569517,,,,251.29941083107963
1561309569600,1.723825216293335,,0.33518823981285095,
1561309569601,,7.067683219909668,,198.13685199233885
1561309569656,1.7142484188079834,,,
1561309569659,,,0.6799532771110535,204.7460299011883
1561309569660,,8.178592681884766,,202.20433892610822
1561309569726,0.9385270476341248,,,
1561309569800,-0.6224924325942993,,,
1561309569802,,,4.8267107009887695,
1561309569803,,13.55118179321289,,265.1960112635501
1561309569864,-0.6799532771110535,11.453861236572266,1.9536685943603516,280.6164883715528
1561309569870,,,,278.8081206567111
1561309569941,1.0438719987869263,,,
1561309569942,,9.509769439697266,1.886630892753601,231.5798487349308
1561309570006,-0.8810662031173706,8.810662269592285,-1.139639973640442,50.960799548463
1561309570078,0.871489405632019,6.943184852600098,0.3734954595565796,197.198780151351
1561309570143,1.216254472732544,,,
1561309570144,,9.097966194152832,0.22026655077934265,185.05496335425676
1561309570145,,,,184.79492439217597
1561309570213,0.8906430602073669,,,
1561309570215,,11.396400451660156,1.072602391242981,222.9701220785629
1561309570218,,,,222.71613466408678
1561309570295,-1.5418659448623657,,,
1561309570296,,,2.049436569213867,
1561309570297,,12.325350761413574,,295.754072704512
1561309570358,1.4748282432556152,11.473014831542969,1.4652514457702637,216.45883444089804
1561309570428,1.235408067703247,,1.5322890281677246,223.52907743948003
1561309570429,,10.065223693847656,,
1561309570493,0.4213795065879822,,,
1561309570495,,8.743624687194824,1.5610195398330688,247.2630695599256
1561309570579,1.6184803247451782,7.948749542236328,0.3926490843296051,189.62142292765213
1561309570636,0.5841852426528931,9.126696586608887,1.6855180263519287,244.1825039800881
1561309570708,0.45010992884635925,10.199298858642578,0.181959331035614,198.67082252127216
1561309570774,-0.26815059781074524,9.66299819946289,-0.7182605266571045,67.53580402244052
1561309570786,,,,67.50694647319722
1561309570856,0.49799394607543945,10.860098838806152,2.4229321479797363,250.13040346406444
1561309570918,0.8427590131759644,,,
1561309570919,,10.438719749450684,2.2218191623687744,240.6832341437505
1561309570990,1.0534487962722778,8.226476669311523,0.9097966551780701,214.8421559851127
1561309571078,0.3926490843296051,7.929595947265625,0.7852981686592102,237.75484517862088
1561309571138,-0.9385270476341248,,1.5897499322891235,292.4630553359681
1561309571139,,9.96945571899414,,
1561309571213,1.0247182846069336,11.204863548278809,-0.3926490843296051,156.1771384670306
1561309571267,0.6129156351089478,,,
1561309571268,,11.84650993347168,2.0398597717285156,246.29038232022407
1561309571342,0.6320692300796509,,1.292868971824646,237.73141762976775
1561309571343,,11.185709953308105,,237.24290883995008
1561309571421,1.522712230682373,9.165003776550293,1.5322890281677246,218.2091113968488
1561309571475,0.5746083855628967,8.437167167663574,1.0534487962722778,235.50369679045474
1561309571544,1.2545616626739502,7.508216381072998,-0.009576806798577309,176.69579171493595
1561309571545,,,,176.0280724216755
1561309571613,0.8427590131759644,,,
1561309571614,,,2.0590133666992188,240.4595864295676
1561309571615,,9.797073364257813,,239.98212888582702
1561309571695,0.8331822156906128,,,
1561309571696,,9.950302124023438,0.4118026793003082,201.4312707950894
1561309571758,0.5171475410461426,,,
1561309571759,,8.437167167663574,-1.1683704853057861,110.95925076517352
1561309571824,-0.2585737705230713,12.871228218078613,4.01268196105957,261.2935485303174
1561309571826,,,,261.1397395003979
1561309571893,1.3886369466781616,,0.9002198576927185,
1561309571894,,9.327810287475586,,205.27767816580376
1561309571895,,,,207.184571359423
1561309571963,0.33518823981285095,,0.4213795065879822,
1561309571964,,7.690176010131836,,226.06998977299486
1561309571971,,,,226.74785872736197
1561309572039,0.12449848651885986,,,
1561309572040,,,1.072602391242981,
1561309572041,,8.992621421813965,,257.2578083158103
1561309572106,1.216254472732544,,,
1561309572108,,9.078812599182129,1.6663644313812256,228.79251683654024
1561309572173,0.028730420395731926,,,
1561309572175,,,1.9919757843017578,
1561309572176,,12.871228218078613,,263.9259853987104
1561309572244,1.580173134803772,,,
1561309572246,,9.84495735168457,0.15322890877723694,183.79491639579442
1561309572314,1.2066776752471924,11.109095573425293,0.8236053586006165,211.9426587201723
1561309572317,,,,211.861857582291
1561309572393,0.07661445438861847,8.762778282165527,-0.5746083855628967,98.09688440701564
1561309572467,1.0630255937576294,6.866570472717285,0.3734954595565796,198.8931998202694
1561309572523,2.3750481605529785,,,
1561309572524,,8.370129585266113,1.6280571222305298,212.8670292016851
1561309572525,,,,213.20218658425762
1561309572594,0.9097966551780701,,,
1561309572595,,10.96544361114502,3.1507694721221924,249.71921924584052
1561309572664,0.6991068720817566,,,
1561309572665,,10.764330863952637,0.23942017555236816,199.188345954684
1561309572677,,,,198.23871743362042
1561309572738,0.689530074596405,,,
1561309572739,,10.611102104187012,-0.47884035110473633,146.05839079657514
1561309572804,1.1779472827911377,,,
1561309572806,,8.801085472106934,-1.2545616626739502,135.1904533364393
1561309572878,0.35434186458587646,,,
1561309572880,,9.528923034667969,1.723825216293335,252.1056531908971
1561309572957,0.7565677165985107,8.753201484680176,0.8331822156906128,224.7861327750859
1561309573021,0.4596867263317108,,,
1561309573023,,9.768342971801758,0.7086837291717529,235.66614600967432
1561309573113,1.886630892753601,,,
1561309573114,,12.15296745300293,3.227383852005005,235.84644934338428
1561309573181,2.31758713722229,,0.727837324142456,
1561309573182,,10.630255699157715,,198.1348712374795
1561309573235,0.4596867263317108,,1.0438719987869263,248.29564389826976
1561309573236,,11.30063247680664,,249.81232838460613
1561309573311,1.0247182846069336,,,
1561309573312,,7.65186882019043,0.19153612852096558,195.71127423314886
1561309573381,0.8906430602073669,,1.8291701078414917,
1561309573382,,8.83939266204834,,246.1145254396638
1561309573450,0.2777273952960968,,,
1561309573451,,7.948749542236328,-1.139639973640442,113.89358199488106
1561309573520,2.2409727573394775,,,
1561309573523,,9.155426979064941,0.6416460275650024,200.95489242123767
1561309573601,-0.3447650372982025,,2.5091233253479004,278.80083967505584
1561309573602,,12.047622680664063,,
1561309573666,1.5131354331970215,,,
1561309573667,,10.036493301391602,2.183511972427368,236.08762332297744
1561309573725,0.7565677165985107,9.260771751403809,0.6320692300796509,223.23175930490942
1561309573741,,,,221.63853571873392
1561309573787,0.8810662031173706,,,
1561309573789,,8.96389102935791,0.9576807022094727,228.3560540881981
1561309573795,,,,226.55475561914733
1561309573870,0.6129156351089478,,,
1561309573872,,9.117119789123535,1.2641384601593018,242.5252951817679
1561309573952,0.2585737705230713,9.174580574035645,1.0821791887283325,255.08349955580678
1561309574002,0.5650315880775452,,4.4532151222229,
1561309574003,,12.871228218078613,,257.30654854572754
1561309574005,,,,257.3032700549259
1561309574069,2.5474305152893066,,-0.9768342971801758,
1561309574070,,8.015787124633789,,160.8673064266733
1561309574092,,,,159.52283833006965
1561309574150,-1.37906014919281,,1.886630892753601,
1561309574151,,12.765883445739746,,302.3487159708077
1561309574211,2.7485435009002686,8.810662269592285,2.4133553504943848,216.684654155237
1561309574235,,,,215.91153138270494
1561309574274,-0.4596867263317108,,,
1561309574276,,8.465897560119629,0.6320692300796509,300.624475695973
1561309574292,,,,300.1763401543393
1561309574350,1.0821791887283325,,,
1561309574352,,8.705317497253418,2.537853717803955,239.70661271508703
1561309574375,,,,239.61592146328763
1561309574425,1.235408067703247,9.53849983215332,-2.346317768096924,115.07652977799222
1561309574492,-2.2888567447662354,,1.072602391242981,
1561309574493,,12.995726585388184,,327.9292599786499
1561309574529,,,,326.91740501915297
1561309574567,0.05746084079146385,,,
1561309574568,,10.706870079040527,0.3734954595565796,254.45486260497717
1561309574626,-1.235408067703247,9.90241813659668,-0.2106897532939911,3.1758136350303516
1561309574640,,,,3.881078264714972
1561309574719,-0.8810662031173706,,,
1561309574720,,8.47547435760498,0.28730419278144836,335.6167164366747
1561309574763,-0.28730419278144836,,,
1561309574764,,8.59997272491455,0.17238251864910126,324.0512561528351
1561309574778,,,,324.9560957084163
1561309574848,-0.2585737705230713,8.916007041931152,1.6280571222305298,273.88655271817754
1561309574911,1.3503297567367554,,,
1561309574912,,8.580819129943848,-1.1013327836990356,135.2159162816651
1561309574914,,,,133.1046774884575
1561309574979,2.451662540435791,8.71489429473877,-1.1492167711257935,146.67702835045986
1561309574990,,,,145.17295239333137
1561309575061,-1.1492167711257935,,,
1561309575062,,,2.3942017555236816,285.1539196409757
1561309575063,,13.886369705200195,,283.51303499477183
1561309575121,1.4748282432556152,,1.1013327836990356,
1561309575122,,8.255207061767578,,205.8146129968368
1561309575132,,,,205.10529785153096
1561309575189,0.009576806798577309,,,
1561309575192,,8.197746276855469,-0.45010992884635925,79.67981206483148
1561309575195,,,,76.2903580099694
1561309575262,0.5171475410461426,,0.6512228846549988,
1561309575263,,9.615114212036133,,216.24474899155314
1561309575270,,,,213.33140010297592
1561309575323,0.1628057211637497,,,
1561309575324,,10.046070098876953,1.015141487121582,242.4169274003965
1561309575349,,,,237.6964880423523
1561309575393,0.06703764945268631,,,
1561309575394,,13.148955345153809,4.060565948486328,245.00089724643902
1561309575407,,,,239.8469731025308
1561309575464,-1.3120225667953491,11.118672370910645,-0.689530074596405,0.45439695747273845
1561309575475,,,,354.9590057769419
1561309575550,-2.5953147411346436,14.087482452392578,1.800439715385437,289.7122717798263
1561309575612,1.359906554222107,7.086836814880371,1.4652514457702637,189.47722397389487
1561309575614,,,,186.11515897760444
1561309575673,-0.40222588181495667,,,
1561309575674,,9.059659004211426,0.7469909191131592,256.18667755960143
1561309575702,,,,251.79970852740473
1561309575747,1.3982137441635132,,,
1561309575749,,,0.6607996821403503,
1561309575750,,8.59997272491455,,161.06219904445044
1561309575761,,,,156.26135469949685
1561309575814,0.363918662071228,11.808202743530273,1.8962076902389526,207.7562855137097
1561309575831,,,,200.73896282081694
1561309575885,0.20111294090747833,11.674127578735352,-2.2026655673980713,41.252693096192445
1561309575894,,,,34.81708736962594
1561309575958,-1.292868971824646,,,
1561309575959,,,3.1890766620635986,
1561309575960,,10.639832496643066,,224.6663039362872
1561309575965,,,,217.3356258246526
1561309576028,1.5131354331970215,,,
1561309576029,,7.7763671875,2.3558945655822754,167.16147601100178
1561309576039,,,,159.22108057253848
1561309576100,-1.8195933103561401,,,
1561309576101,,10.065223693847656,0.49799394607543945,260.14396622130175
1561309576107,,,,247.37775526627928
1561309576163,0.6512228846549988,,1.522712230682373,
1561309576164,,8.398859977722168,,155.2895417240091
1561309576174,,,,144.46606879537006
1561309576239,0.3734954595565796,9.691728591918945,-0.23942017555236816,43.52162388186275
1561309576264,,,,33.95698896820289
1561309576305,1.5418659448623657,9.002198219299316,0.507570743560791,88.3861517470092
1561309576314,,,,79.32699181306532
1561309576374,1.4652514457702637,10.582371711730957,0.7565677165985107,87.86071895453847
1561309576388,,,,79.49495982513429
1561309576451,1.292868971824646,10.132261276245117,0.8236053586006165,84.58022690750556
1561309576459,,,,79.97836646364192
1561309576513,1.139639973640442,,0.727837324142456,
1561309576514,,9.251194953918457,,79.96326491538707
1561309576524,,,,78.37756136748771
1561309576590,-1.4844050407409668,10.41956615447998,3.907337188720703,155.09984005000118
1561309576594,,,,154.09144458131883
1561309576657,0.20111294090747833,10.620678901672363,4.108449935913086,131.78309052557339
1561309576664,,,,130.3903876330511
1561309576736,-0.8140285611152649,10.20887565612793,1.9249382019042969,154.4579115510467
1561309576797,-0.15322890877723694,7.680599212646484,1.7621324062347412,134.79241723236763
1561309576812,,,,131.3803006098394
1561309576863,0.1628057211637497,,1.3024457693099976,
1561309576864,,7.65186882019043,,119.26736992817197
1561309576877,,,,115.16481680320382
1561309576934,1.1300631761550903,7.297526836395264,1.742978811264038,91.95329317312923
1561309576950,,,,84.02358015052783
1561309577006,1.6089035272598267,7.603984832763672,1.1204863786697388,61.50010928687283
1561309577014,,,,55.51688406450921
1561309577081,0.6512228846549988,10.515334129333496,1.9919757843017578,91.52464416119756
1561309577105,,,,87.45430220835522
1561309577144,3.2178070545196533,10.036493301391602,1.091755986213684,35.60739489810976
1561309577157,,,,33.179966157654746
1561309577217,0.5746083855628967,10.936713218688965,1.1875240802764893,76.64157999746976
1561309577236,,,,74.78119356190916
1561309577289,3.0166940689086914,,,
1561309577290,,9.979032516479492,2.3558945655822754,52.52892218943873
1561309577296,,,,48.70359278250305
1561309577367,-1.7908629179000854,,,
1561309577368,,11.951854705810547,1.1013327836990356,154.28930150119575
1561309577425,2.4803929328918457,,,
1561309577426,,7.661445617675781,3.19865345954895,64.01839320366736
1561309577452,,,,59.636328247294784
1561309577509,2.049436569213867,,,
1561309577511,,,1.6663644313812256,
1561309577570,-0.028730420395731926,8.801085472106934,-0.7086837291717529,259.97536300163995
1561309577585,,,,259.5150765534728
1561309577635,1.580173134803772,,,
1561309577636,,9.27034854888916,1.3311761617660522,36.5748160619612
1561309577664,,,,37.65616136607389
1561309577731,3.1699230670928955,,,
1561309577732,,10.256759643554688,0.9385270476341248,12.407165839601475
1561309577792,-1.2545616626739502,,-0.6416460275650024,
1561309577793,,11.674127578735352,,199.46151254034942
1561309577846,-0.17238251864910126,,,
1561309577847,,12.210428237915039,3.5625722408294678,93.4947849065311
1561309577881,,,,92.21709556944268
1561309577916,-0.40222588181495667,,,
1561309577917,,9.318233489990234,-0.5171475410461426,222.8002962550397
1561309577924,,,,222.8194344450941
1561309577985,0.038307227194309235,8.130708694458008,-0.40222588181495667,266.0213644926652
1561309577994,,,,267.6447775149722
1561309578060,1.9728221893310547,,,
1561309578061,,6.71334171295166,0.35434186458587646,4.502346295203779
1561309578064,,,,6.314197406522283
1561309578127,0.8523358106613159,,,
1561309578129,,10.180145263671875,2.1739351749420166,69.68290130879075
1561309578153,,,,69.18863466950279
1561309578194,2.250549554824829,12.306197166442871,2.4133553504943848,47.62734621460578
1561309578207,,,,48.939456290016494
1561309578281,3.2752678394317627,,,
1561309578283,,6.885724067687988,-1.8579005002975464,314.24632493889044
1561309578352,-0.49799394607543945,11.626243591308594,0.38307225704193115,141.1360647070437
1561309578426,1.091755986213684,8.820239067077637,-0.6607996821403503,326.8804161297028
1561309578479,1.1779472827911377,8.101978302001953,0.7374141216278076,32.99214961585773
1561309578497,,,,29.851331522257
1561309578567,2.652775526046753,,1.2737152576446533,
1561309578568,,7.939172744750977,,25.95533697816836
1561309578615,0.6799532771110535,,,
1561309578616,,10.007762908935547,-1.2832920551300049,289.98745327129694
1561309578627,,,,288.2583772225299
1561309578685,0.07661445438861847,,1.4844050407409668,
1561309578686,,11.224017143249512,,83.91554021823657
1561309578694,,,,83.77517983079281
1561309578762,0.727837324142456,12.54561710357666,1.3407529592514038,57.67826327641387
1561309578764,,,,58.251732789317316
1561309578834,0.6607996821403503,7.891288757324219,-2.030282974243164,275.97482841539556
1561309578903,2.298433542251587,8.303091049194336,1.8387469053268433,37.45782974804962
1561309578933,,,,36.98118158172571
1561309578964,-0.49799394607543945,10.630255699157715,1.6855180263519287,102.18452722902566
1561309578989,,,,101.95737562779857
1561309579038,-0.009576806798577309,8.647856712341309,0.3926490843296051,84.87281172098136
1561309579065,,,,86.65143396198772
1561309579115,0.45010992884635925,12.804190635681152,1.1779472827911377,65.36199386624645
1561309579204,1.6855180263519287,,-0.2298433631658554,
1561309579205,,9.806650161743164,,349.1274794829311
1561309579270,0.09576806426048279,9.816226959228516,-0.7757213711738586,276.9478298437989
1561309579315,0.5267243981361389,10.122684478759766,0.38307225704193115,39.10942413087207
1561309579329,,,,37.594662342787046
1561309579392,3.706224203109741,7.115567684173584,3.1316158771514893,56.28416361020629
1561309579394,,,,53.3656203627653
1561309579468,0.6129156351089478,,,
1561309579469,,,-1.3215993642807007,
1561309579470,,8.848969459533691,,290.78680397024186
1561309579525,2.212242364883423,,2.4612393379211426,
1561309579526,,11.894393920898438,,51.08437474602147
1561309579542,,,,51.86931033072307
1561309579593,1.6089035272598267,,,
1561309579594,,10.975020408630371,-0.9672574996948242,326.1788703245778
1561309579611,,,,327.5712795189658
1561309579663,1.0247182846069336,,,
1561309579664,,11.022904396057129,1.7525556087493896,63.40506953695689
1561309579675,,,,64.73644416092168
1561309579741,-0.8523358106613159,7.90086555480957,-1.4077905416488647,238.1596568303492
1561309579744,,,,239.51016281417913
1561309579814,2.1930887699127197,,,
1561309579816,,8.427590370178223,1.1109095811843872,34.37117846966163
1561309579882,-0.28730419278144836,,,
1561309579883,,10.467450141906738,0.28730419278144836,141.4983106198645
1561309579894,,,,145.41721361842934
1561309579944,3.5051112174987793,10.409989356994629,1.0055646896362305,30.9114793342805
1561309579963,,,,34.51130321557906
1561309580013,1.0821791887283325,,,
1561309580014,,,1.800439715385437,
1561309580015,,11.003750801086426,,76.10538965705626
1561309580027,,,,77.39721748572663
1561309580086,0.6416460275650024,,,
1561309580087,,10.936713218688965,1.800439715385437,88.38805053959845
1561309580098,,,,89.05698560653116
1561309580160,2.0207061767578125,10.333374977111816,2.2026655673980713,68.64214440382085
1561309580164,,,,68.54342084955749
1561309580225,1.3886369466781616,8.245630264282227,1.5610195398330688,68.51592250795903
1561309580241,,,,68.88256023241615
1561309580294,1.3407529592514038,7.469909191131592,0.24899697303771973,26.758381101906934
1561309580308,,,,27.5486186209518
1561309580371,1.7046716213226318,9.002198219299316,1.455674648284912,61.73132485065611
1561309580382,,,,65.3684757157688
1561309580442,-1.4844050407409668,,0.4692635238170624,
1561309580443,,12.7946138381958,,179.607405735464
1561309580445,,,,183.18040427616836
1561309580503,1.4460978507995605,,,
1561309580504,,9.35654067993164,-0.6512228846549988,356.2712806306664
1561309580544,,,,356.64870130283225
1561309580579,-1.2258312702178955,10.90798282623291,0.047884032130241394,197.98257167936663
1561309580587,,,,193.1549393324882
1561309580643,1.0055646896362305,,,
1561309580644,,7.4316020011901855,0.727837324142456,56.49199943646062
1561309580660,,,,53.84731603888588
1561309580713,-0.028730420395731926,,,
1561309580714,,9.279925346374512,1.139639973640442,108.39808692076966
1561309580724,,,,107.12976860322249
1561309580791,-1.1013327836990356,9.940725326538086,0.1628057211637497,183.9517921806513
1561309580794,,,,183.40447546207986
1561309580860,3.361459255218506,,,
1561309580861,,,1.9823989868164063,54.54885842891622
1561309580862,,9.452308654785156,,
1561309580864,,,,56.73463849163073
1561309580934,2.3080103397369385,,0.8236053586006165,
1561309580935,,10.524910926818848,,38.38919775836712
1561309580993,-1.7142484188079834,,,
1561309580994,,13.187262535095215,0.9959878921508789,165.4650209457107
1561309581008,,,,165.46234351155604
1561309581063,0.7852981686592102,,,
1561309581065,,9.53849983215332,1.5322890281677246,83.06810498753475
1561309581074,,,,82.43116252667437
1561309581158,1.5322890281677246,,,
1561309581159,,7.307103633880615,1.0055646896362305,54.31530694043681
1561309581212,0.3447650372982025,7.632715225219727,0.3447650372982025,55.52041527231006
1561309581223,,,,51.94236944918015
1561309581273,0.40222588181495667,,,
1561309581274,,10.41956615447998,1.723825216293335,87.7872534398258
1561309581291,,,,86.85484382565988
1561309581343,1.7334020137786865,,1.656787633895874,
1561309581344,,10.936713218688965,,54.534801899604304
1561309581359,,,,54.91975136122625
1561309581413,-0.038307227194309235,,0.047884032130241394,
1561309581414,,12.373234748840332,,133.54910423737186
1561309581424,,,,132.44966234705328
1561309581488,0.28730419278144836,9.011775016784668,-1.292868971824646,281.90521529434
1561309581494,,,,280.6033265970222
1561309581555,-0.4884171485900879,,-0.4692635238170624,224.94447022042516
1561309581556,,8.820239067077637,,
1561309581564,,,,222.71478228663113
1561309581624,1.6089035272598267,7.987056732177734,0.9959878921508789,37.311120699772346
1561309581638,,,,37.05512862477485
1561309581693,-0.05746084079146385,,,
1561309581694,,12.842497825622559,0.31603461503982544,101.20090485646296
1561309581705,,,,101.57364193984887
1561309581763,4.520252704620361,,4.280832767486572,
1561309581764,,9.461885452270508,,64.93094062772695
1561309581774,,,,63.776044431537
1561309581839,-3.1316158771514893,,,
1561309581840,,,-2.2026655673980713,
1561309581841,,12.354081153869629,,213.62380050134414
1561309581844,,,,212.36617142984807
1561309581906,1.7142484188079834,,,
1561309581908,,,1.9919757843017578,
1561309581909,,7.000645637512207,,59.57034178972327
1561309581918,,,,58.37820740217842
1561309581977,0.20111294090747833,,,
1561309581978,,7.144298076629639,-2.0207061767578125,267.0653520771125
1561309581989,,,,265.197534395735
1561309582055,0.12449848651885986,12.02846908569336,2.7293899059295654,90.60000047211793
1561309582136,1.8962076902389526,,,
1561309582137,,9.931148529052734,3.2752678394317627,66.6078613519918
1561309582189,0.6416460275650024,,,
1561309582190,,10.333374977111816,-2.8634653091430664,270.058457084628
1561309582208,,,,267.8601948512052
1561309582255,0.26815059781074524,,,
1561309582256,,10.994174003601074,1.886630892753601,78.90078117866739
1561309582289,,,,73.54775019026408
1561309582341,0.3064578175544739,,-0.31603461503982544,
1561309582342,,7.747636795043945,,300.13860335917497
1561309582415,-0.9002198576927185,,,
1561309582417,,8.973467826843262,0.181959331035614,154.33809637262632
1561309582467,0.49799394607543945,,1.6855180263519287,
1561309582468,,9.136273384094238,,59.922622456545014
1561309582484,,,,57.11436285853762
1561309582547,0.43095630407333374,13.848062515258789,0.9959878921508789,47.24951381009902
1561309582610,-0.19153612852096558,,4.338293552398682,76.573373728418
1561309582611,,12.842497825622559,,
1561309582640,,,,71.24971938363495
1561309582690,-2.164358377456665,,,
1561309582691,,12.804190635681152,0.9193734526634216,129.21605954867246
1561309582752,0.9097966551780701,,,
1561309582753,,7.527369976043701,1.3215993642807007,19.41673199891801
1561309582779,,,,11.948603160426103
1561309582813,-0.10534487664699554,,,
1561309582814,,8.427590370178223,-0.35434186458587646,207.70505909493454
1561309582832,,,,202.0097331762761
1561309582885,0.24899697303771973,,1.2066776752471924,
1561309582886,,11.070788383483887,,29.284152613579124
1561309582896,,,,25.012991146307286
1561309582975,-0.12449848651885986,,3.160346269607544,44.8916676218135
1561309582976,,10.745177268981934,,35.516129910420034
1561309583026,-0.2106897532939911,7.450755596160889,1.3311761617660522,40.038862612749085
1561309583043,,,,33.83590678969148
1561309583097,-1.5897499322891235,9.797073364257813,1.1779472827911377,80.8910231707282
1561309583106,,,,73.96008871045774
1561309583164,-3.3518824577331543,11.291055679321289,0.6129156351089478,102.15873643471969
1561309583177,,,,96.22139642320019
1561309583238,-0.15322890877723694,8.552088737487793,2.7676970958709717,13.948440714497167
1561309583244,,,,4.860312667622793
1561309583320,0.028730420395731926,,,
1561309583323,,9.548076629638672,1.800439715385437,359.8034459787279
1561309583391,0.47884035110473633,,,
1561309583392,,10.314221382141113,1.5418659448623657,335.52402564699577
1561309583445,2.030282974243164,9.528923034667969,0.3447650372982025,263.367706226521
1561309583461,,,,258.3603647723904
1561309583527,-2.1164743900299072,11.78904914855957,0.7182605266571045,62.64190518023469
1561309583592,0.3447650372982025,,,
1561309583593,,9.90241813659668,0.9002198576927185,315.78125969068907
1561309583594,,,,311.37531297788354
1561309583668,0.6033388376235962,,,
1561309583671,,,1.292868971824646,305.0271644085444
1561309583672,,9.184157371520996,,301.45418658577864
1561309583741,0.08619125932455063,,,
1561309583742,,,0.5171475410461426,320.9307305512584
1561309583743,,9.41400146484375,,
1561309583804,1.292868971824646,,,
1561309583806,,9.040505409240723,0.3734954595565796,249.83748397131927
1561309583873,0.009576806798577309,,,
1561309583875,,,0.9097966551780701,323.7691830004919
1561309583876,,10.467450141906738,,
1561309583948,2.9975404739379883,8.312667846679688,1.4844050407409668,246.63342857128794
1561309584017,-2.940079689025879,,,
1561309584018,,12.076353073120117,2.164358377456665,12.900581266564132
1561309584081,1.6089035272598267,8.322244644165039,1.886630892753601,260.1643406755959
1561309584092,,,,255.0383793261497
1561309584155,-0.545877993106842,,,
1561309584157,,9.959878921508789,1.0342950820922852,331.10297909348265
1561309584214,-0.33518823981285095,,,
1561309584215,,8.848969459533691,1.1300631761550903,313.8948570645799
1561309584231,,,,310.20458781829205
1561309584289,0.047884032130241394,7.393294811248779,0.05746084079146385,257.65321479705153
1561309584297,,,,252.8466126026276
1561309584370,2.4612393379211426,,,
1561309584371,,,1.5610195398330688,226.65290543752042
1561309584372,,7.393294811248779,,224.5812544207422
1561309584427,1.2258312702178955,10.821791648864746,1.8579005002975464,250.06954647855963
1561309584437,,,,247.81883522250035
1561309584494,3.9169139862060547,9.08838939666748,2.049436569213867,217.47377323080525
1561309584520,,,,213.23269020909095
1561309584573,2.365471363067627,8.686163902282715,-0.4596867263317108,182.93625233409716
1561309584580,,,,180.0682695619871
1561309584642,-1.158793568611145,,,
1561309584643,,13.781024932861328,1.800439715385437,308.22818378948966
1561309584644,,,,307.07661048033094
1561309584710,0.4884171485900879,,,
1561309584711,,8.494627952575684,-0.8906430602073669,131.81358049002833
1561309584751,,,,130.20630037454092
1561309584800,1.7525556087493896,,1.0342950820922852,213.309106365525
1561309584801,,5.937620162963867,,214.00515728346267
1561309584871,2.1164743900299072,8.40843677520752,0.5841852426528931,201.6336629605753
1561309584927,1.2545616626739502,10.54406452178955,-0.2777273952960968,178.26333378983222
1561309584989,1.2545616626739502,,,
1561309585021,,,,243.4941575155342
1561309585089,-0.28730419278144836,,,
1561309585092,,,-1.5610195398330688,
1561309585093,,10.54406452178955,,88.48654869761924
1561309585125,2.1930887699127197,10.20887565612793,2.1068975925445557,218.7899370234884
1561309585141,,,,220.0127594509741
1561309585206,-0.2106897532939911,,,
1561309585207,,7.173028469085693,-0.7948749661445618,81.67555235917422
1561309585263,2.1930887699127197,,,
1561309585264,,6.71334171295166,1.139639973640442,204.01063709363143
1561309585277,,,,202.36240316388057
1561309585337,1.5610195398330688,9.251194953918457,0.9576807022094727,207.3437011067059
1561309585344,,,,209.13437180140818
1561309585424,-0.3734954595565796,,,
1561309585425,,10.362105369567871,0.1149216815829277,343.4920457855572
1561309585476,3.2178070545196533,11.616666793823242,1.0247182846069336,195.24012778420138
1561309585489,,,,194.04203064151113
1561309585546,2.738966703414917,10.72602367401123,0.40222588181495667,186.07744267300768
1561309585556,,,,186.9102203177506
1561309585614,0.2777273952960968,11.903970718383789,1.867477297782898,254.90133158045342
1561309585631,,,,256.1355126125288
1561309585694,1.4077905416488647,7.383718013763428,-0.6512228846549988,158.563524600763
1561309585755,0.9864110946655273,7.412448406219482,1.0342950820922852,222.62400907256165
1561309585775,,,,224.1541080504279
1561309585823,3.7158010005950928,,,
1561309585824,,7.33583402633667,1.8770540952682495,204.00409377240658
1561309585852,,,,204.7610699777407
1561309585895,-1.5897499322891235,11.97100830078125,-1.8100165128707886,59.18446342237428
1561309585906,,,,56.53479740179995
1561309585982,3.19865345954895,,,
1561309585985,,10.457873344421387,3.2369606494903564,219.10521855557613
1561309586042,0.363918662071228,,,
1561309586043,,10.793061256408691,-3.0550012588500977,106.10377856723818
1561309586044,,,,105.90519764730925
1561309586111,1.0821791887283325,,,
1561309586112,,12.133813858032227,3.1699230670928955,244.46571094383353
1561309586115,,,,244.58924174516238
1561309586180,-0.45010992884635925,8.446743965148926,0.22026655077934265,333.6687669759546
1561309586188,,,,333.55248300533515
1561309586263,2.298433542251587,,,
1561309586264,,7.163451671600342,1.7046716213226318,212.21329813584487
1561309586318,0.10534487664699554,,,
1561309586321,,9.787496566772461,-0.13407529890537262,128.99650994799157
1561309586348,,,,128.14187569790457
1561309586412,2.145204782485962,9.567230224609375,0.6607996821403503,195.03442980715727
1561309586461,1.2832920551300049,,,
1561309586462,,15.418659210205078,3.6774938106536865,242.98361453545408
1561309586477,,,,242.75883300986902
1561309586530,1.3886369466781616,11.003750801086426,3.265691041946411,237.86646413003723
1561309586543,,,,237.71837196845303
1561309586593,2.0685901641845703,,,
1561309586595,,5.95677375793457,-2.7772738933563232,136.02529369831163
1561309586622,,,,136.0696899279167
1561309586664,0.9768342971801758,11.329362869262695,3.974374771118164,245.0097901527384
1561309586675,,,,246.40091527156238
1561309586738,2.738966703414917,5.085284233093262,0.15322890877723694,183.7793435644868
1561309586744,,,,182.42161124051495
1561309586807,1.2545616626739502,9.710882186889648,-2.9879636764526367,121.9150244580357
1561309586814,,,,118.19854094571338
1561309586873,1.1683704853057861,,3.6391866207122803,239.38271148426668
1561309586874,,12.966996192932129,,
1561309586891,,,,238.8582212579014
1561309586943,1.2449848651885986,,-0.5650315880775452,
1561309586944,,10.955866813659668,,152.0100673751625
1561309586957,,,,152.76065052343355
1561309587013,0.20111294090747833,,,
1561309587014,,10.553641319274902,-0.8331822156906128,101.70171481697582
1561309587026,,,,109.42418623978068
1561309587091,-1.3982137441635132,9.548076629638672,-0.6224924325942993,30.35249323751208
1561309587095,,,,35.893658371508764
1561309587162,2.7006595134735107,,2.4612393379211426,
1561309587163,,7.948749542236328,,224.14367152137618
1561309587164,,,,226.69010264774033
1561309587226,0.10534487664699554,,0.689530074596405,
1561309587227,,9.260771751403809,,270.3520322755335
1561309587238,,,,271.4412698632321
1561309587293,2.518700122833252,,,
1561309587294,,10.898406028747559,1.2641384601593018,215.55682599872785
1561309587305,,,,215.05278535873754
1561309587368,1.8962076902389526,10.821791648864746,-0.8810662031173706,168.00571471317204
1561309587376,,,,170.03122097191766
1561309587442,-2.6431987285614014,12.114660263061523,-1.5514427423477173,51.44393297940388
1561309587444,,,,52.1359848215825
1561309587507,2.9305028915405273,,,
1561309587508,,6.2632317543029785,1.3311761617660522,214.00618181183813
1561309587514,,,,213.963670714444
1561309587579,1.091755986213684,,-0.2777273952960968,
1561309587580,,8.121131896972656,,180.31438859853938
1561309587593,,,,180.18559855154956
1561309587661,1.3215993642807007,,,
1561309587662,,9.835380554199219,2.1356279850006104,246.34331628629167
1561309587714,1.5705963373184204,11.109095573425293,-0.9672574996948242,163.63193477626268
1561309587747,,,,162.243835431241
1561309587794,3.160346269607544,10.65898609161377,1.3694833517074585,212.27254319670556
1561309587810,,,,212.27412780059296
1561309587863,-0.181959331035614,11.425130844116211,0.3734954595565796,307.7950814942192
1561309587876,,,,309.2398987301086
1561309587924,-1.886630892753601,8.226476669311523,-0.31603461503982544,27.385260986572575
1561309587965,,,,30.436101583142204
1561309587996,2.63362193107605,6.847416877746582,1.1492167711257935,215.78950322299352
1561309588020,,,,218.53422840134147
1561309588077,-0.6512228846549988,,,
1561309588078,,10.78348445892334,1.1492167711257935,316.74216143897775
1561309588089,,,,317.2696364580103
1561309588138,2.4133553504943848,,0.8044517636299133,
1561309588139,,10.20887565612793,,215.56310977276428
1561309588160,,,,215.81208382838952
1561309588211,1.4077905416488647,,-0.5746083855628967,178.45232512416646
1561309588212,,10.84094524383545,,
1561309588238,,,,178.41180844200994
1561309588280,1.5131354331970215,11.827356338500977,1.5322890281677246,241.74573837103765
1561309588296,,,,242.5351579749294
1561309588346,-1.742978811264038,,,
1561309588348,,11.319786071777344,-0.9002198576927185,52.63238931008067
1561309588365,,,,51.92780065568047
1561309588428,1.216254472732544,,2.4899697303771973,
1561309588429,,8.762778282165527,,257.5662664889173
1561309588444,,,,258.55897984326526
1561309588489,1.4939818382263184,6.646304130554199,-0.10534487664699554,196.55439278429526
1561309588505,,,,195.6489009456484
1561309588577,0.9385270476341248,,,
1561309588580,,,0.17238251864910126,
1561309588581,,8.552088737487793,,209.9731736729991
1561309588640,2.8634653091430664,10.515334129333496,1.9153614044189453,227.39451371722203
1561309588657,,,,225.93286689521767
1561309588701,-1.8291701078414917,13.388376235961914,-1.2066776752471924,52.44396488144753
1561309588727,,,,49.87911614998643
1561309588770,0.7852981686592102,11.836933135986328,3.9264907836914063,265.23448571914474
1561309588786,,,,264.2114190041252
1561309588836,-1.5897499322891235,,,
1561309588837,,8.829815864562988,-2.5761611461639404,78.55172436113389
1561309588878,,,,77.50136421019096
1561309588931,1.2258312702178955,,,
1561309588932,,,1.359906554222107,
1561309588933,,8.427590370178223,,236.23995020184708
1561309589003,2.049436569213867,6.9910688400268555,-0.10534487664699554,189.033097753304
1561309589051,-0.22026655077934265,,,
1561309589052,,9.931148529052734,-0.6416460275650024,84.19256586078313
1561309589078,,,,82.75037141753495
1561309589123,3.7828385829925537,,5.372588634490967,240.27455660495195
1561309589124,,13.618219375610352,,
1561309589153,,,,239.46273398058258
1561309589187,1.8291701078414917,,,
1561309589188,,9.500192642211914,-3.246537446975708,132.17884534646225
1561309589218,,,,130.20397811022312
1561309589261,0.4692635238170624,,,
1561309589262,,,2.4133553504943848,263.4234064192025
1561309589263,,12.469002723693848,,
1561309589280,,,,263.60547877190754
1561309589334,2.346317768096924,,-0.7565677165985107,
1561309589335,,7.450755596160889,,170.361187410721
1561309589352,,,,171.66113633431448
1561309589398,-0.07661445438861847,8.034940719604492,0.8810662031173706,282.50352620525473
1561309589436,,,,282.2181882224883
1561309589463,2.671929121017456,,,
1561309589465,,4.3861775398254395,0.15322890877723694,192.30046900694128
1561309589507,,,,192.4957031341769
1561309589546,-3.1699230670928955,13.283031463623047,-0.09576806426048279,11.516022520853426
1561309589562,,,,10.57409076921084
1561309589605,1.656787633895874,11.72201156616211,1.7812861204147339,233.81666738621823
1561309589630,,,,234.40586682478022
1561309589687,-0.6129156351089478,11.942277908325195,2.030282974243164,293.28665320646655
1561309589715,,,,293.3339522664689
1561309589749,0.14365209639072418,,,
1561309589750,,,-0.7182605266571045,110.82464139701091
1561309589751,,9.787496566772461,,
1561309589790,,,,111.93531894851418
1561309589851,-0.8427590131759644,,0.15322890877723694,
1561309589852,,9.548076629638672,,359.47917123527753
1561309589887,1.091755986213684,,1.9823989868164063,
1561309589888,,8.293514251708984,,247.92901300400183
1561309589921,,,,247.68010042007904
1561309589962,-0.4213795065879822,,,
1561309589963,,8.9064302444458,-0.49799394607543945,59.81110595796622
1561309589974,,,,56.705159395172984
1561309590023,1.8770540952682495,,,
1561309590024,,9.308655738830566,-1.8291701078414917,142.9748062731245
1561309590054,,,,140.52261809692817
1561309590094,-3.294421434402466,16.845603942871094,4.175487995147705,307.10175923685495
1561309590116,,,,304.7422533126011
1561309590163,2.365471363067627,,,
1561309590164,,8.370129585266113,0.05746084079146385,182.56343328844116
1561309590187,,,,178.3074568118705
1561309590234,-0.4118026793003082,,1.9728221893310547,276.5698198543737
1561309590235,,13.254301071166992,,
1561309590256,,,,275.044242461738
1561309590307,0.4213795065879822,,,
1561309590309,,,-0.20111294090747833,
1561309590310,,7.939172744750977,,150.0725202925483
1561309590342,,,,149.93976873583995
1561309590402,0.9576807022094727,,2.470816135406494,
1561309590403,,9.232041358947754,,241.3858147225347
1561309590444,-0.20111294090747833,9.66299819946289,0.47884035110473633,285.0752426919263
1561309590468,,,,280.3159258971264
1561309590531,-0.20111294090747833,,,
1561309590532,,9.557653427124023,0.6799532771110535,273.634156737778
1561309590539,,,,266.7982438692408
1561309590591,-5.037400245666504,12.038045883178711,1.3024457693099976,319.83529798198265
1561309590604,,,,312.75552686950846
1561309590662,1.8387469053268433,9.758766174316406,2.2601263523101807,204.12668200762994
1561309590690,,,,199.19883712524916
1561309590735,-0.4884171485900879,,,
1561309590736,,11.434707641601563,1.4844050407409668,255.26182896484664
1561309590745,,,,252.4450726115117
1561309590793,-0.2106897532939911,,,
1561309590794,,7.90086555480957,-0.507570743560791,34.645096376135825
1561309590820,,,,33.48877267040939
1561309590864,1.216254472732544,8.858546257019043,0.31603461503982544,160.51605711841623
1561309590904,,,,159.7968791799489
1561309590934,-0.08619125932455063,10.936713218688965,-0.8619126081466675,50.054351483332255
1561309590956,,,,52.470001562563596
1561309591004,-0.038307227194309235,10.055646896362305,-1.8195933103561401,59.59076405534165
1561309591031,,,,63.56196581238129
1561309591077,-1.4939818382263184,,,
1561309591078,,11.425130844116211,-1.50355863571167,16.977458002894878
1561309591094,,,,15.006931351873277
1561309591165,-1.2449848651885986,11.635820388793945,2.183511972427368,258.3042752589263
1561309591221,-0.6799532771110535,9.184157371520996,1.1971008777618408,300.84362231549284
1561309591239,,,,96.9622738726606
1561309591286,3.3423056602478027,,,
1561309591287,,5.928043365478516,2.31758713722229,14.35075166321559
1561309591320,,,,14.4186266680926
1561309591395,2.049436569213867,,-0.4118026793003082,320.10868313370156
1561309591396,,8.437167167663574,,325.830202827827
1561309591452,2.892195701599121,,1.015141487121582,358.0846390793573
1561309591453,,7.354987621307373,,
1561309591518,0.47884035110473633,10.007762908935547,-0.9193734526634216,277.48325520302535
1561309591526,,,,286.9422953921168
1561309591572,-0.6033388376235962,,-0.7374141216278076,
1561309591573,,12.22000503540039,,220.5313893750315
1561309591592,,,,229.32309959164525
1561309591641,-1.1683704853057861,12.210428237915039,-1.4460978507995605,229.63283501012694
1561309591655,,,,235.52701505628113
1561309591712,0.4213795065879822,8.734047889709473,4.2329487800598145,91.03892208856132
1561309591724,,,,94.5221546407277
1561309591779,-1.9632453918457031,11.30063247680664,1.139639973640442,158.06758456512839
1561309591794,,,,159.11448864035125
1561309591867,-1.0630255937576294,9.768342971801758,3.160346269607544,117.98948251559762
1561309591913,1.015141487121582,,,
1561309591914,,6.9240312576293945,1.3407529592514038,63.16358819885113
1561309591944,,,,62.26617647399229
1561309591989,-0.9481038451194763,,,
1561309591990,,9.251194953918457,-0.2777273952960968,203.7759108126147
1561309592020,,,,201.508670498764
1561309592060,0.24899697303771973,,,
1561309592061,,8.427590370178223,1.6280571222305298,87.8095335168984
1561309592076,,,,87.0517376888638
1561309592128,0.6607996821403503,,,
1561309592129,,8.542511940002441,0.6799532771110535,51.088073293457
1561309592155,,,,51.64859618278871
1561309592194,-0.727837324142456,,,
1561309592195,,10.630255699157715,-0.5650315880775452,222.6160177512328
1561309592214,,,,220.9523612543361
1561309592268,-1.742978811264038,13.752294540405273,2.1164743900299072,133.35545471402367
1561309592310,,,,132.60760364142064
1561309592336,4.146757125854492,9.107542991638184,2.6815059185028076,41.75285077363958
1561309592361,,,,39.636274187595575
1561309592405,0.5841852426528931,10.946290016174316,0.9864110946655273,61.12641597700309
1561309592425,,,,58.538026998567545
1561309592479,0.35434186458587646,,0.6991068720817566,
1561309592480,,8.916007041931152,,62.15416137160412
1561309592527,,,,59.44284947867584
1561309592553,0.9768342971801758,6.598419666290283,0.12449848651885986,2.8356909183746666
1561309592601,,,,359.4234065826858
1561309592614,1.091755986213684,7.920019149780273,-0.7086837291717529,317.5812604237976
1561309592638,,,,318.09179998878307
1561309592685,1.0821791887283325,9.825803756713867,0.20111294090747833,3.3164359175401046
1561309592725,,,,2.4615269657824115
1561309592765,0.22026655077934265,,,
1561309592772,,,0.9002198576927185,
1561309592773,,13.24472427368164,,69.02994205432668
1561309592786,,,,70.80438421956097
1561309592826,-1.4939818382263184,,2.719813108444214,114.59334853572719
1561309592827,,14.393940925598145,,
1561309592846,,,,113.19727152975491
1561309592893,1.1492167711257935,,-1.0342950820922852,
1561309592894,,8.858546257019043,,308.1756425592994
1561309592916,,,,308.19645756079495
1561309592976,0.35434186458587646,9.232041358947754,1.235408067703247,68.36621159154151
1561309592990,,,,69.39342423138726
1561309593042,0.3064578175544739,,,
1561309593047,,7.33583402633667,-0.4405331015586853,297.3367777993657
1561309593072,,,,295.0038447260778
1561309593112,0.10534487664699554,,,
1561309593114,,8.08282470703125,0.5746083855628967,71.76492738291819
1561309593124,,,,72.0706329897896
1561309593173,2.7006595134735107,,,
1561309593174,,,2.346317768096924,
1561309593175,,11.367670059204102,,36.227576074746935
1561309593196,,,,36.162194088916976
1561309593245,2.671929121017456,,,
1561309593246,,12.507309913635254,0.871489405632019,10.413099795379026
1561309593264,,,,11.580340704720129
1561309593318,-0.6129156351089478,10.831368446350098,-1.944091796875,243.75594500604245
1561309593335,,,,243.17035190736226
1561309593399,1.3982137441635132,8.245630264282227,2.0015525817871094,51.83366698853939
1561309593408,,,,52.34446951580793
1561309593457,0.9864110946655273,6.655880928039551,0.5554547905921936,23.422163248983168
1561309593493,,,,23.35125222502012
1561309593540,0.507570743560791,7.680599212646484,-0.9193734526634216,289.6140263388048
1561309593550,,,,290.10245316635246
1561309593611,1.1109095811843872,11.243170738220215,-2.978386878967285,279.2562766889123
1561309593625,,,,281.1105910863007
1561309593664,-0.7182605266571045,13.761871337890625,3.2082302570343018,101.51378899215206
1561309593715,,,,100.67405821483402
1561309593734,1.7046716213226318,11.03248119354248,-0.3064578175544739,343.48114821873645
1561309593763,,,,342.59200102277333
1561309593811,2.1068975925445557,,,
1561309593812,,9.14585018157959,1.5514427423477173,33.286995221948814
1561309593830,,,,30.86268104775536
1561309593877,0.7469909191131592,,0.08619125932455063,
1561309593878,,8.006210327148438,,358.12501019310713
1561309593895,,,,358.2286958798025
1561309593952,1.4460978507995605,8.197746276855469,0.8140285611152649,22.445418876914687
1561309593964,,,,22.74341490776044
1561309594141,1.0821791887283325,9.528923034667969,1.0055646896362305,36.35840493320393
1561309594142,,11.35809326171875,,
1561309594154,4.63517427444458,10.381258964538574,2.5091233253479004,34.08870575125201
1561309594181,,,,34.76137693166072
1561309594245,-1.9919757843017578,10.591948509216309,-3.5625722408294678,239.65985324002912
1561309594309,1.235408067703247,,1.072602391242981,
1561309594310,,7.785943984985352,,45.15635794271901
1561309594324,,,,46.834019742508815
1561309594379,1.6855180263519287,7.374141216278076,1.599326729774475,51.33735129250039
1561309594387,,,,50.48609115586339
1561309594438,0.7852981686592102,8.59997272491455,0.26815059781074524,21.11657313049011
1561309594464,,,,18.488440988821594
1561309594511,0.3926490843296051,11.473014831542969,1.3407529592514038,74.99874191716327
1561309594532,,,,72.51291505930465
1561309594600,0.9959878921508789,11.750741958618164,-0.6320692300796509,322.51404694804285
1561309594651,2.6623523235321045,10.132261276245117,-2.164358377456665,313.02226624716496
1561309594664,,,,313.19639850495986
1561309594713,0.9385270476341248,,,
1561309594714,,,4.424484729766846,
1561309594715,,11.827356338500977,,84.47774674919867
1561309594739,,,,81.55814823753087
1561309594799,-1.2449848651885986,7.709329605102539,-0.3256114423274994,190.21380523436733
1561309594808,,,,190.43600494844623
1561309594859,0.5171475410461426,,,
1561309594860,,7.623138427734375,-0.6703764796257019,301.94661590417985
1561309594883,,,,302.7132090158654
1561309594947,0.23942017555236816,10.898406028747559,1.9536685943603516,83.40468304945466
1561309595014,3.600879430770874,11.377246856689453,2.9496564865112305,44.124910585587884
1561309595024,,,,44.11877024552405
1561309595065,2.4229321479797363,,-1.9153614044189453,314.45755878425683
1561309595066,,10.103530883789063,,
1561309595103,,,,315.38203513370183
1561309595145,-0.5746083855628967,,,
1561309595146,,10.812214851379395,-1.0821791887283325,239.09421795410373
1561309595157,,,,237.71943747796354
1561309595210,2.183511972427368,7.795520782470703,2.4420857429504395,53.72031550145863
1561309595237,,,,49.66293724766092
1561309595279,0.2585737705230713,,,
1561309595280,,7.795520782470703,1.1013327836990356,72.951795694613
1561309595294,,,,71.49001226882518
1561309595343,2.8155810832977295,,,
1561309595344,,7.632715225219727,2.585737943649292,43.88451866265473
1561309595417,1.9632453918457031,10.132261276245117,-2.4229321479797363,43.03635601680628
1561309595437,,,,294.23195821778546
1561309595608,0.33518823981285095,,,
1561309595609,,11.051634788513184,-3.533841609954834,261.2799564538691
1561309595652,0.9481038451194763,8.101978302001953,-1.436521053314209,289.4219614193441
1561309595693,-0.6224924325942993,,,
1561309595694,,8.695740699768066,0.8810662031173706,115.98310078652804
1561309595715,,,,116.62128634181732
1561309595776,0.45010992884635925,8.322244644165039,1.3215993642807007,63.84347205902333
1561309595786,,,,66.70506177407026
1561309595839,0.7948749661445618,10.429142951965332,0.9002198576927185,42.483370241223724
1561309595878,,,,44.33412952514914
1561309595904,1.9632453918457031,14.09705924987793,5.774814605712891,74.74726118211254
1561309595936,,,,76.71833083317318
1561309595995,1.3886369466781616,10.304644584655762,-1.158793568611145,313.27670103903165
1561309596044,-0.7086837291717529,11.348516464233398,1.9249382019042969,112.33487818477079
1561309596076,,,,112.36200769615408
1561309596269,2.0207061767578125,7.881711959838867,3.869029998779297,75.34180865879466
1561309596284,,,,0.7091664286087962
1561309596339,1.8770540952682495,11.281478881835938,-1.0055646896362305,319.2812945082137
1561309596352,,,,318.7760107737945
1561309596406,1.647210717201233,,0.2106897532939911,357.3542786271148
1561309596407,,10.314221382141113,,
1561309596419,,,,357.4330100042341
1561309596463,-0.009576806798577309,,2.470816135406494,
1561309596464,,11.137825965881348,,85.72356642361984
1561309596492,,,,84.30813266153973
1561309596536,-0.7948749661445618,9.90241813659668,1.6950948238372803,107.84997790025449
1561309596568,,,,106.44514459176625
1561309596621,-1.5514427423477173,8.35097599029541,-0.08619125932455063,171.25461713529367
1561309596635,,,,169.87060224339564
1561309596675,1.2641384601593018,6.617573261260986,0.689530074596405,16.497555251431493
1561309596694,,,,18.53035785975794
1561309596749,-0.8331822156906128,,0.727837324142456,128.7221549094105
1561309596750,,9.557653427124023,,
1561309596764,,,,129.16502437519412
1561309596813,2.4899697303771973,,-0.038307227194309235,
1561309596814,,9.14585018157959,,345.27904525358053
1561309596840,,,,345.50097859028176
1561309596903,-1.139639973640442,,0.8427590131759644,
1561309596904,,13.35964584350586,,133.73283632604523
1561309596911,,,,133.10358465819027
1561309596955,1.0055646896362305,11.118672370910645,2.011129379272461,55.967041342137236
1561309596980,,,,52.8184470781664
1561309597024,0.5363011956214905,9.758766174316406,0.019153613597154617,346.7399458774181
1561309597052,,,,344.2083072332489
1561309597095,-0.8140285611152649,8.983044624328613,1.599326729774475,103.68499001608325
1561309597114,,,,98.60842459471456
1561309597163,0.9481038451194763,,,
1561309597164,,6.7708024978637695,0.9672574996948242,25.33815254702955
1561309597184,,,,23.468471931555882
1561309597234,-1.2832920551300049,,,
1561309597235,,9.988609313964844,1.1683704853057861,116.56597546991856
1561309597278,,,,115.2909840575523
1561309597303,2.212242364883423,,,
1561309597304,,11.41555404663086,1.742978811264038,14.39454171353185
1561309597342,,,,13.608336567418235
1561309597390,1.9536685943603516,10.342951774597168,2.3942017555236816,28.4481938082302
1561309597402,,,,26.189817372374876
1561309597452,-0.507570743560791,,,
1561309597453,,12.009315490722656,1.8387469053268433,80.56266865656903
1561309597464,,,,77.67072558085061
1561309597515,-0.5650315880775452,6.100425720214844,-1.1109095811843872,211.64635145359875
1561309597559,,,,208.86354114043877
1561309597586,-0.1149216815829277,8.073247909545898,0.3064578175544739,77.85906121702453
1561309597624,,,,72.8406616866277
1561309597676,-0.23942017555236816,9.643844604492188,0.31603461503982544,89.45476899360358
1561309597740,3.8498764038085938,,2.75812029838562,
1561309597741,,10.984597206115723,,350.62967713803783
1561309597755,,,,346.4849296656983
1561309597799,-2.5091233253479004,14.068328857421875,0.6799532771110535,120.60873711889244
1561309597834,,,,116.32452828275862
1561309597868,2.652775526046753,11.377246856689453,2.4133553504943848,349.3201471665861
1561309597888,,,,343.49611316320795
1561309597937,-1.139639973640442,,,
1561309597938,,10.927136421203613,0.181959331035614,116.33747832142495
1561309597957,,,,109.76918592494718
1561309598024,-0.15322890877723694,,1.2066776752471924,
1561309598025,,,,36.142932955457525
1561309598027,,,,29.947142000839335
1561309598028,,8.523358345031738,,
1561309598092,1.2832920551300049,,,
1561309598093,,8.379706382751465,0.6416460275650024,315.1672427597779
1561309598098,,,,310.331195619842
1561309598171,-0.45010992884635925,,,
1561309598172,,12.105083465576172,1.599326729774475,33.611552150929526
1561309598233,1.7525556087493896,9.66299819946289,0.26815059781074524,287.9545977290044
1561309598236,,,,283.65144194811296
1561309598305,0.1628057211637497,8.916007041931152,1.292868971824646,0.9915844521442523
1561309598366,-1.9153614044189453,9.710882186889648,0.7565677165985107,76.76572551582393
1561309598376,,,,72.28810621296282
1561309598453,-1.8195933103561401,,,
1561309598455,,8.65743350982666,0.33518823981285095,83.39139150132979
1561309598513,-1.5514427423477173,,,
1561309598514,,9.136273384094238,1.7334020137786865,39.51463193357222
1561309598515,,,,33.071608621567066
1561309598576,0.05746084079146385,,1.9823989868164063,344.87833000780694
1561309598577,,9.394847869873047,,
1561309598587,,,,338.9005484462118
1561309598666,1.0438719987869263,,1.3503297567367554,301.6774654697463
1561309598667,,10.5344877243042,,295.407447434323
1561309598721,0.49799394607543945,10.831368446350098,0.4884171485900879,289.54343633373276
1561309598733,,,,284.627646735237
1561309598786,0.3926490843296051,,,
1561309598787,,,2.9879636764526367,319.46844510656666
1561309598788,,11.97100830078125,,
1561309598794,,,,313.833071173348
1561309598882,1.886630892753601,8.609549522399902,0.507570743560791,247.01574841007942
1561309598947,-1.235408067703247,10.984597206115723,0.40222588181495667,36.52395505830668
1561309599001,0.9864110946655273,,,
1561309599002,,7.508216381072998,2.4803929328918457,286.9556893930792
1561309599011,,,,283.55511579024824
1561309599065,-0.545877993106842,8.293514251708984,1.5514427423477173,331.07112992138286
1561309599077,,,,327.18945486888913
1561309599158,0.8619126081466675,6.675034523010254,1.0630255937576294,266.8373330418608
1561309599217,-0.5841852426528931,9.126696586608887,-1.3407529592514038,107.60597622234494
1561309599297,1.723825216293335,,,
1561309599298,,9.481039047241211,2.432508945465088,262.35777396527544
1561309599372,1.292868971824646,,,
1561309599373,,9.165003776550293,-0.45010992884635925,193.01460626580115
1561309599420,-0.3734954595565796,,,
1561309599421,,12.22000503540039,3.7924153804779053,298.7482705422947
1561309599432,,,,295.27608240601614
1561309599495,1.235408067703247,10.793061256408691,-0.028730420395731926,205.41514255303946
1561309599573,1.4269442558288574,,1.5514427423477173,
1561309599574,,7.508216381072998,,246.36106111775536
1561309599642,0.2298433631658554,,,
1561309599643,,10.036493301391602,2.4612393379211426,280.04209678311145
1561309599709,1.3215993642807007,,,
1561309599710,,7.412448406219482,1.2641384601593018,243.13956141458385
1561309599787,0.2968810200691223,8.935160636901855,0.9193734526634216,274.562632162982
1561309599845,-1.455674648284912,,2.6144683361053467,
1561309599905,4.807557106018066,,-0.028730420395731926,
1561309599906,,9.576807022094727,,200.42758815693446
1561309599919,,,,198.4247581262332
1561309599980,-2.279279947280884,13.79060173034668,0.31603461503982544,13.15303188847696
1561309599986,,,,13.749780393619062
1561309600064,1.8195933103561401,,,
1561309600066,,7.422025203704834,3.7158010005950928,256.0287840765582
1561309600113,0.5171475410461426,,,
1561309600114,,6.129156112670898,-0.9193734526634216,141.40043400905822
1561309600143,,,,141.22950169488948
1561309600213,0.31603461503982544,9.576807022094727,0.9672574996948242,269.93877850999104
1561309600270,3.3518824577331543,10.5344877243042,2.451662540435791,228.42674654610778
1561309600339,-0.2298433631658554,12.210428237915039,-0.08619125932455063,33.61854284954501
1561309600394,0.6033388376235962,10.591948509216309,1.8962076902389526,258.70539860850283
1561309600427,,,,257.77158880555703
1561309600472,-1.8387469053268433,,,
1561309600473,,10.78348445892334,0.7757213711738586,345.14049145117224
1561309600480,,,,345.88850217944713
1561309600549,1.7525556087493896,,2.1356279850006104,
1561309600550,,8.485051155090332,,236.48299565327284
1561309600604,0.4596867263317108,8.667010307312012,0.40222588181495667,231.50434782384548
1561309600615,,,,231.4287376297334
1561309600703,1.4939818382263184,,,
1561309600704,,11.511322021484375,2.5474305152893066,246.56083049059993
1561309600745,1.158793568611145,11.798625946044922,-2.126051187515259,130.8747163470967
1561309600783,,,,129.76813007890627
1561309600821,2.2888567447662354,,,
1561309600822,,10.228029251098633,-1.0342950820922852,164.9957459685958
1561309600871,,,,163.90389924863425
1561309600887,-0.12449848651885986,11.568782806396484,0.9959878921508789,282.32654917367057
1561309600932,,,,281.7855845310272
1561309600957,2.432508945465088,,,
1561309600958,,6.426037311553955,1.6184803247451782,216.92839628595812
1561309600964,,,,217.27360770698886
1561309601023,1.0247182846069336,,,
1561309601024,,8.734047889709473,2.279279947280884,247.5825448281638
1561309601066,,,,248.69785324792434
1561309601119,3.4763808250427246,5.726930618286133,-1.1779472827911377,170.21166090941105
1561309601163,0.35434186458587646,,,
1561309601164,,10.342951774597168,0.9289502501487732,255.2846964381879
1561309601202,,,,252.75573693572062
1561309601240,0.2968810200691223,,,
1561309601241,,9.299078941345215,-2.3080103397369385,107.89657345077228
1561309601252,,,,106.6512660405389
1561309601310,1.3503297567367554,12.622231483459473,4.108449935913086,250.62960833012232
1561309601314,,,,250.81040343745258
1561309601381,0.12449848651885986,,-1.2545616626739502,103.76990975803398
1561309601382,,8.753201484680176,,
1561309601385,,,,103.47819237858278
1561309601445,1.7525556087493896,7.814674377441406,1.6184803247451782,223.88617338966668
1561309601455,,,,226.9755089323985
1561309601532,1.7621324062347412,9.078812599182129,2.873042106628418,240.7169479574937
1561309601591,1.1492167711257935,11.91354751586914,-2.518700122833252,127.88993734017947
1561309601601,,,,126.96734270785083
1561309601654,3.045424461364746,9.835380554199219,-0.363918662071228,181.59503540753838
1561309601665,,,,180.3467910159619
1561309601732,-1.4844050407409668,13.110648155212402,-1.1300631761550903,47.28533473720114
1561309601743,,,,48.7356741810346
1561309601793,2.2409727573394775,,1.0630255937576294,211.6446575666846
1561309601794,,7.173028469085693,,
1561309601806,,,,212.893298109233
1561309601890,0.15322890877723694,9.050082206726074,-0.12449848651885986,151.05848541999632
1561309601940,1.656787633895874,,0.6416460275650024,210.07598168038612
1561309601941,,8.398859977722168,,
1561309601953,,,,210.4217668373072
1561309602023,1.2258312702178955,,-0.49799394607543945,
1561309602024,,10.620678901672363,,169.2886154845972
1561309602085,1.3024457693099976,8.370129585266113,-1.7717092037200928,138.30437756018313
1561309602087,,,,136.3966510834852
1561309602152,1.8291701078414917,,2.978386878967285,
1561309602153,,11.137825965881348,,239.9824977160422
1561309602162,,,,237.7064327977838
1561309602215,1.0630255937576294,,,
1561309602216,,9.27034854888916,0.9002198576927185,222.87919860033173
1561309602227,,,,224.8068828897844
1561309602286,-1.6089035272598267,9.653421401977539,-1.7046716213226318,60.56685955943897
1561309602298,,,,62.00119928514164
1561309602359,3.9264907836914063,7.33583402633667,2.3367409706115723,214.80591500137666
1561309602402,,,,218.46307149056827
1561309602424,0.49799394607543945,9.299078941345215,0.7661445140838623,247.48151266996092
1561309602467,,,,248.89354499783434
1561309602494,0.1149216815829277,12.411541938781738,2.2601263523101807,276.3167408550572
1561309602534,,,,278.0891339635405
1561309602564,5.228936672210693,,1.158793568611145,205.53923342988026
1561309602565,,9.260771751403809,,
1561309602605,,,,207.8835592587037
1561309602659,-3.00711727142334,14.336480140686035,0.5937620401382446,9.335194345287107
1561309602710,2.6431987285614014,8.149862289428711,1.4269442558288574,223.1528842803741
1561309602721,,,,224.7423785832628
1561309602780,0.6512228846549988,7.326257228851318,-0.9193734526634216,148.81900299493253
1561309602791,,,,149.75312698658016
1561309602860,2.4229321479797363,,2.1547815799713135,
1561309602861,,7.508216381072998,,236.60421785066217
1561309602913,1.091755986213684,,-0.3447650372982025,185.6449550947625
1561309602914,,10.639832496643066,,
1561309602924,,,,183.00034682926855
1561309602984,-1.5610195398330688,12.172121047973633,3.8498764038085938,302.52638968168725
1561309603023,,,,299.86754047177385
1561309603080,0.8810662031173706,,,
1561309603081,,12.277466773986816,3.485957622528076,265.19577220692906
1561309603155,-1.072602391242981,9.988609313964844,0.23942017555236816,8.633249827869406
1561309603196,-1.5322890281677246,8.044517517089844,-0.507570743560791,44.558740296005
1561309603243,,,,43.51111905091926
1561309603312,2.183511972427368,,1.2737152576446533,225.74630710822794
1561309603313,,6.9910688400268555,,224.31532783559692
1561309603340,-0.727837324142456,,,
1561309603341,,10.8505220413208,1.1779472827911377,318.49439865922034
1561309603404,-0.6607996821403503,,,
1561309603405,,13.85763931274414,4.778826713562012,319.0432282646929
1561309603420,,,,285.46938558817106
1561309603476,3.514688014984131,8.092401504516602,0.181959331035614,199.35793955177542
1561309603486,,,,195.5248647103209
1561309603548,-1.886630892753601,,,
1561309603549,,,0.8044517636299133,
1561309603550,,12.775460243225098,,350.95239589235814
1561309603554,,,,346.94173442493604
1561309603620,1.3694833517074585,,1.6376339197158813,
1561309603621,,7.833827972412109,,234.96677561980005
1561309603665,,,,231.63651198428522
1561309603689,1.359906554222107,7.738059997558594,0.6224924325942993,209.45401099418643
1561309603695,,,,210.46303484027237
1561309603755,0.507570743560791,9.892841339111328,1.0342950820922852,249.025142252573
1561309603766,,,,246.65120755369753
1561309603829,1.072602391242981,9.002198219299316,-0.45010992884635925,164.01979389847102
1561309603838,,,,158.90719239904138
1561309603928,-1.8483237028121948,11.338939666748047,-0.8523358106613159,28.02859821204339
1561309603967,-1.0342950820922852,,,
1561309603968,,11.080365180969238,1.9919757843017578,288.7755181653482
1561309603991,,,,288.7150641610044
1561309604037,-2.38462495803833,12.018892288208008,1.3215993642807007,323.49660381109504
1561309604045,,,,324.99781108877215
1561309604112,-0.181959331035614,7.058106422424316,0.15322890877723694,317.4791354353275
1561309604114,,,,318.86407581785807
1561309604180,-0.22026655077934265,,,
1561309604181,,8.609549522399902,-1.3982137441635132,84.88661553329399
1561309604186,,,,82.40766667592953
1561309604249,1.2449848651885986,,1.3886369466781616,
1561309604250,,10.046070098876953,,222.93924962351446
1561309604254,,,,221.8815675097813
1561309604346,-1.1683704853057861,13.627796173095703,3.620033025741577,277.12838589450814
1561309604398,1.37906014919281,,,
1561309604399,,8.628703117370605,-0.15322890877723694,168.42174153551753
1561309604454,-2.940079689025879,13.043610572814941,1.4460978507995605,321.2646960658208
1561309604465,,,,320.2800286743151
1561309604534,0.3734954595565796,,2.126051187515259,
1561309604535,,8.149862289428711,,246.2410000525249
1561309604601,1.455674648284912,,,
1561309604602,,6.866570472717285,0.181959331035614,178.3322367381793
1561309604616,,,,177.1394261619066
1561309604679,-0.1149216815829277,,0.6416460275650024,
1561309604680,,10.802638053894043,,268.5571063729783
1561309604762,-0.08619125932455063,,,
1561309604763,,9.557653427124023,-0.6512228846549988,72.63032601113719
1561309604838,-1.292868971824646,11.262324333190918,-0.689530074596405,13.813635832169552
1561309604873,-1.9057846069335938,,,
1561309604874,,16.261417388916016,4.989516258239746,261.3095516635427
1561309604918,,,,256.9986777688892
1561309604943,-2.75812029838562,,,
1561309604944,,11.942277908325195,-1.1300631761550903,357.1477943245425
1561309604991,,,,352.90820305883153
1561309605051,1.8770540952682495,,,
1561309605052,,5.985504150390625,0.05746084079146385,156.75497247081367
1561309605118,-0.6512228846549988,11.291055679321289,1.0247182846069336,269.0255412368253
1561309605178,-1.9536685943603516,12.430695533752441,1.1779472827911377,287.01640294461146
1561309605228,-0.5267243981361389,,-2.7772738933563232,49.11232154772034
1561309605229,,10.266336441040039,,
1561309605236,,,,38.02434954347257
1561309605299,1.9728221893310547,9.452308654785156,4.587290287017822,193.89672519710825
1561309605304,,,,184.81566084649614
1561309605364,1.0342950820922852,8.561665534973145,0.6799532771110535,154.57215329510433
1561309605374,,,,146.00825720806725
1561309605458,1.015141487121582,8.772355079650879,0.689530074596405,146.74460624210798
1561309605532,0.8044517636299133,,,
1561309605533,,9.251194953918457,0.47884035110473633,137.27989016581625
1561309605591,1.5418659448623657,8.33182144165039,0.3256114423274994,119.71284852621855
1561309605674,1.800439715385437,9.806650161743164,0.871489405632019,132.2566412011087
1561309605752,-0.08619125932455063,,0.4596867263317108,
1561309605753,,10.103530883789063,,205.31238918716576
1561309605819,1.800439715385437,,,
1561309605820,,9.08838939666748,-0.38307225704193115,101.87641739556636
1561309605862,-2.0685901641845703,13.781024932861328,4.003105163574219,217.71403196504963
1561309605866,,,,216.0902774332842
1561309605926,-1.0342950820922852,,,
1561309605927,,10.486603736877441,2.250549554824829,214.81445273783913
1561309605978,,,,209.93571691559072
1561309605998,-0.4884171485900879,7.910442352294922,0.6224924325942993,224.61311042303112
1561309606006,,,,221.5552620523731
1561309606095,0.43095630407333374,7.565677165985107,0.9097966551780701,162.3297455506214
1561309606146,-0.6703764796257019,9.873687744140625,0.4405331015586853,238.2233688349271
1561309606204,0.24899697303771973,,1.5418659448623657,
1561309606205,,9.892841339111328,,164.45677574119009
1561309606216,,,,153.40994196631328
1561309606288,0.689530074596405,10.314221382141113,-1.7142484188079834,2.3739545491127387
1561309606358,-0.7948749661445618,11.176133155822754,3.2082302570343018,167.86148843865806
1561309606421,2.499546527862549,8.255207061767578,2.2026655673980713,107.28316782179178
1561309606432,,,,98.53667345748357
1561309606492,-0.9385270476341248,,,
1561309606493,,12.038045883178711,2.097320795059204,160.34919559699281
1561309606504,,,,150.58423806516566
1561309606553,0.12449848651885986,,,
1561309606565,,8.485051155090332,0.4213795065879822,108.90758488190676
1561309606635,-1.359906554222107,,0.9864110946655273,169.17483819340313
1561309606636,,10.113107681274414,,
1561309606699,1.359906554222107,6.157886981964111,2.3750481605529785,90.42381574247747
1561309606711,,,,81.43728120997832
1561309606772,0.3064578175544739,,,
1561309606773,,6.885724067687988,-0.5171475410461426,305.0043242559599
1561309606775,,,,299.50804712518857
1561309606837,3.0166940689086914,,,
1561309606838,,9.911994934082031,2.5953147411346436,52.35473529013046
1561309606849,,,,48.73957421905067
1561309606951,1.742978811264038,,,
1561309606952,,,-0.3926490843296051,344.0398747683164
1561309606953,,9.394847869873047,,340.8025631772163
1561309606974,0.8427590131759644,10.237606048583984,0.181959331035614,7.688513429798888
1561309607022,,,,17.10379430442532
1561309607043,0.5267243981361389,,,
1561309607044,,12.114660263061523,1.235408067703247,73.73431680744301
1561309607084,,,,80.20576395167916
1561309607113,-1.7812861204147339,,0.22026655077934265,
1561309607114,,11.741165161132813,,183.4055546319687
1561309607144,,,,185.39969666204559
1561309607191,0.8427590131759644,6.933608055114746,0.3734954595565796,38.93801370346142
1561309607199,,,,40.890351560723275
1561309607257,0.08619125932455063,7.479485988616943,0.10534487664699554,65.68601804047182
1561309607264,,,,66.38375601513451
1561309607360,0.6129156351089478,9.461885452270508,2.1356279850006104,95.52529769393834
1561309607393,3.3901896476745605,,0.6703764796257019,
1561309607394,,,,32.0582510204527
1561309607423,,,,31.89680925413569
1561309607481,1.8483237028121948,13.15853214263916,-0.2777273952960968,7.082882690527924
1561309607551,0.5937620401382446,8.121131896972656,-0.4596867263317108,338.27697437310445
1561309607614,0.9864110946655273,,,
1561309607615,,8.724471092224121,1.3407529592514038,75.20032812032701
1561309607676,1.8483237028121948,6.828263282775879,0.507570743560791,34.48170117571624
1561309607686,,,,31.26927537885706
1561309607779,-0.2298433631658554,,,
1561309607781,,,1.3215993642807007,
1561309607782,,9.768342971801758,,114.15623691941389
1561309607840,2.8634653091430664,,-0.2298433631658554,7.0158307234459585
1561309607841,,8.580819129943848,,
1561309607910,2.691082715988159,10.898406028747559,0.9768342971801758,33.48914833081369
1561309607984,-2.738966703414917,12.871228218078613,0.3447650372982025,181.2363958345993
1561309608046,0.6129156351089478,,,
1561309608047,,6.45476770401001,0.009576806798577309,8.850156999115143
1561309608102,0.35434186458587646,8.523358345031738,-0.038307227194309235,2.1851459223387906
1561309608113,,,,3.577886380901532
1561309608164,0.7852981686592102,8.523358345031738,0.49799394607543945,44.2467338396242
1561309608176,,,,47.899846856827196
1561309608235,3.1028854846954346,,,
1561309608236,,9.567230224609375,-0.6991068720817566,0.6165026395214568
1561309608246,,,,5.331471496288145
1561309608338,-1.8387469053268433,15.255853652954102,2.3558945655822754,147.19485231219522
1561309608394,3.3423056602478027,9.404424667358398,0.33518823981285095,30.83210570593576
1561309608450,-2.75812029838562,11.903970718383789,-2.164358377456665,232.72307213782915
1561309608457,,,,232.77129327336945
1561309608513,0.9481038451194763,,,
1561309608514,,6.722918510437012,0.8236053586006165,65.79846344477778
1561309608526,,,,65.94322930423618
1561309608620,0.9193734526634216,5.841852188110352,-1.1300631761550903,323.80012375743206
1561309608653,1.3694833517074585,,,
1561309608654,,9.854534149169922,2.3558945655822754,86.97020572074138
1561309608664,,,,85.7987326554358
1561309608726,1.5897499322891235,,-0.7374141216278076,352.8532260124285
1561309608727,,10.65898609161377,,
1561309608746,,,,353.6133163571373
1561309608793,-0.15322890877723694,,,
1561309608794,,12.325350761413574,1.5705963373184204,117.68909079590046
1561309608809,,,,114.82785625069039
1561309608863,2.9305028915405273,,,
1561309608864,,10.60152530670166,3.6391866207122803,79.75428161735215
1561309608876,,,,78.33636849660337
1561309608941,-2.7772738933563232,10.505757331848145,-1.7046716213226318,224.40559561566783
1561309608945,,,,222.9688106822423
1561309609004,2.365471363067627,6.1770405769348145,0.38307225704193115,30.145337015080145
1561309609014,,,,32.503801335485605
1561309609078,-0.5363011956214905,,-1.656787633895874,264.8328637657588
1561309609079,,9.318233489990234,,
1561309609096,,,,266.02909626680565
1561309609164,1.4748282432556152,,,
1561309609165,,11.54005241394043,-0.47884035110473633,0.6092035151762047
1561309609223,0.6129156351089478,11.587936401367188,1.656787633895874,92.54206913996268
1561309609231,,,,93.47857686763064
1561309609283,2.604891538619995,,,
1561309609284,,10.5344877243042,1.599326729774475,58.77785543089419
1561309609294,,,,59.60033315036884
1561309609357,-0.727837324142456,,,
1561309609358,,11.233593940734863,0.3256114423274994,176.91885203285022
1561309609365,,,,174.6350553404514
1561309609435,1.4077905416488647,7.2113356590271,1.656787633895874,76.56023244445493
1561309609493,2.63362193107605,,,
1561309609494,,6.253654956817627,-0.20111294090747833,14.995203917068409
1561309609511,,,,12.449462639810406
1561309609563,0.2968810200691223,,,
1561309609564,,10.879252433776855,1.4652514457702637,95.79454375102023
1561309609581,,,,92.25975693099855
1561309609642,2.8826189041137695,,,
1561309609643,,,-0.4596867263317108,1.1062490276001995
1561309609644,,8.65743350982666,,
1561309609650,,,,1.4752069886627055
1561309609708,-0.6607996821403503,,,
1561309609709,,11.66455078125,-0.1149216815829277,199.58960590804384
1561309609716,,,,200.51218687999415
1561309609775,0.2968810200691223,11.444284439086914,0.6129156351089478,76.983232889943
1561309609797,,,,77.99705835901545
1561309609844,-3.0166940689086914,11.1474027633667,-1.7334020137786865,218.30616838495473
1561309609871,,,,218.9869743206649
1561309609922,2.049436569213867,,,
1561309609923,,8.178592681884766,1.5418659448623657,58.99456367288036
1561309609924,,,,59.07150575388056
1561309610002,0.9864110946655273,8.5903959274292,0.12449848651885986,22.19665655715363
1561309610063,0.9002198576927185,,,
1561309610064,,,-0.5937620401382446,
1561309610065,,9.318233489990234,,339.5490066060128
1561309610128,1.8579005002975464,11.070788383483887,0.038307227194309235,16.167365123932825
1561309610143,,,,17.12666007021926
1561309610195,0.028730420395731926,,0.4405331015586853,101.71676855390649
1561309610196,,11.769895553588867,,
1561309610207,,,,102.96482853037543
1561309610264,-0.33518823981285095,9.53849983215332,-0.3256114423274994,239.20773569810933
1561309610286,,,,239.13140150394526
1561309610335,1.139639973640442,,,
1561309610337,,8.925583839416504,2.6240451335906982,90.05968469744573
1561309610346,,,,87.50893006133697
1561309610411,0.7086837291717529,,,
1561309610412,,7.364564418792725,0.009576806798577309,14.356646116469335
1561309610447,,,,12.421043930221288
1561309610494,0.5554547905921936,9.461885452270508,0.8427590131759644,70.4184853616444
1561309610554,2.212242364883423,,,
1561309610556,,11.84650993347168,2.873042106628418,72.58093008305963
1561309610619,0.2585737705230713,,,
1561309610622,,,-1.5705963373184204,
1561309610623,,10.716446876525879,,285.84423320001054
1561309610648,,,,285.96839237874303
1561309610713,2.5474305152893066,,2.231395959854126,59.337152301269896
1561309610714,,10.342951774597168,,58.04287243468747
1561309610769,0.20111294090747833,,-0.9864110946655273,288.5386950162564
1561309610770,,7.747636795043945,,286.2765500235265
1561309610825,0.2106897532939911,9.864110946655273,2.097320795059204,96.64002554761942
1561309610854,,,,96.63234158480316
1561309610915,1.2641384601593018,8.465897560119629,2.2697031497955322,75.9969330832256
1561309610964,-0.38307225704193115,9.452308654785156,-1.0534487962722778,256.80620303807825
1561309610981,,,,260.2870928353593
1561309611034,-0.15322890877723694,12.832921028137207,4.003105163574219,111.20437942429612
1561309611052,,,,112.7458574973196
1561309611116,1.072602391242981,,1.0534487962722778,
1561309611117,,12.29662036895752,,62.19342129895335
1561309611187,-0.9864110946655273,,-2.0685901641845703,
1561309611188,,11.798625946044922,,258.5659739569753
1561309611257,2.1068975925445557,,,
1561309611258,,6.722918510437012,1.7334020137786865,67.18334577070038
1561309611313,0.40222588181495667,,-1.292868971824646,
1561309611314,,7.000645637512207,,298.78697722432116
1561309611324,,,,299.37550730434447
1561309611389,-1.1109095811843872,,1.1779472827911377,151.22798339443935
1561309611390,,10.515334129333496,,
1561309611405,,,,151.42350438962015
1561309611460,0.028730420395731926,11.128249168395996,0.4213795065879822,103.5873319713304
1561309611476,,,,105.22121567363499
1561309611530,0.3447650372982025,8.877699851989746,-2.1068975925445557,291.0665890092131
1561309611564,,,,289.2967230707227
1561309611597,0.19153612852096558,12.78503704071045,2.31758713722229,106.17833691221804
1561309611618,,,,101.78963984216136
1561309611674,-0.3447650372982025,,,
1561309611676,,,-0.13407529890537262,213.12555186177008
1561309611677,,9.691728591918945,,
1561309611737,2.1739351749420166,7.536946773529053,1.7334020137786865,56.70906626337825
1561309611768,,,,54.771966558154645
1561309611823,-1.37906014919281,9.21288776397705,-0.9002198576927185,218.1239799190338
1561309611874,2.518700122833252,,3.313575267791748,68.10932134666814
1561309611875,,11.530475616455078,,
1561309611890,,,,66.52548927060144
1561309611952,0.5937620401382446,10.84094524383545,-2.853888511657715,279.312065674053
1561309611974,,,,279.23216612114214
1561309612016,0.9385270476341248,,1.1492167711257935,
1561309612017,,13.062764167785645,,57.85217355306071
1561309612032,,,,56.66427046770673
1561309612086,-0.5554547905921936,8.389283180236816,0.1149216815829277,171.76468200213188
1561309612116,,,,167.60811574120726
1561309612162,-0.8331822156906128,,,
1561309612163,,7.067683219909668,-0.9672574996948242,224.94810388106362
1561309612180,,,,222.44426581436363
1561309612231,2.365471363067627,7.4316020011901855,-0.047884032130241394,354.0458380863284
1561309612242,,,,351.2574927586198
1561309612293,-2.786850690841675,,1.0534487962722778,155.9031522586647
1561309612294,,11.03248119354248,,
1561309612308,,,,153.96333755324608
1561309612363,-1.072602391242981,,3.6104562282562256,
1561309612364,,14.279019355773926,,105.7781288079903
1561309612376,,,,102.23638202520442
1561309612435,3.2752678394317627,8.676587104797363,-2.4899697303771973,297.3785444061403
1561309612444,,,,296.4004613169945
1561309612509,-1.742978811264038,15.61019515991211,-0.5363011956214905,184.08000849175073
1561309612514,,,,179.69543321348712
1561309612575,0.6416460275650024,,,
1561309612576,,9.624691009521484,0.2106897532939911,0.7831198215994277
1561309612590,,,,353.1729796108753
1561309612643,1.091755986213684,,,
1561309612644,,5.95677375793457,-1.6280571222305298,270.36216827626174
1561309612655,,,,267.24521144852645
1561309612713,-1.0821791887283325,,,
1561309612715,,11.080365180969238,0.6607996821403503,123.14937624484043
1561309612726,,,,118.31041944431817
1561309612791,-1.1875240802764893,,,
1561309612792,,,3.7253777980804443,
1561309612793,,13.129801750183105,,83.87621881918483
1561309612801,,,,79.5175745814762
1561309612853,1.1971008777618408,,,
1561309612854,,7.920019149780273,0.4596867263317108,340.34518809718287
1561309612865,,,,332.3182473317463
1561309612930,0.6607996821403503,10.975020408630371,2.63362193107605,36.28669819220255
1561309612943,,,,26.627004120769072
1561309613002,0.047884032130241394,9.059659004211426,0.7469909191131592,34.014485500636056
1561309613006,,,,22.892856031705776
1561309613088,0.7948749661445618,,,
1561309613089,,9.816226959228516,1.6280571222305298,359.0602824035873
1561309613143,0.1149216815829277,9.452308654785156,0.31603461503982544,357.25057906659765
1561309613145,,,,354.1984061562531
1561309613205,2.049436569213867,,,
1561309613206,,8.02536392211914,-0.45010992884635925,262.1712756499882
1561309613246,,,,251.78814501713993
1561309613284,-0.14365209639072418,,,
1561309613285,,11.128249168395996,0.8331822156906128,13.780929471328932
1561309613347,1.6759412288665771,,,
1561309613348,,10.113107681274414,1.1300631761550903,287.8554507030125
1561309613356,,,,278.61623332216874
1561309613415,-1.7908629179000854,12.957419395446777,5.190629482269287,3.8027603274838384
1561309613452,,,,348.436688664428
1561309613494,1.4460978507995605,,,
1561309613495,,7.1251444816589355,2.671929121017456,285.48620151390764
1561309613505,,,,277.81604934014507
1561309613563,-0.2777273952960968,,,
1561309613564,,9.892841339111328,1.886630892753601,328.46917618725564
1561309613575,,,,321.28944867137295
1561309613631,-0.3734954595565796,8.96389102935791,2.298433542251587,320.0249655050447
1561309613647,,,,312.47326930205764
1561309613693,0.26815059781074524,,,
1561309613694,,7.3454108238220215,2.1068975925445557,293.4819078242697
1561309613704,,,,286.43218954414357
1561309613764,1.6376339197158813,7.038952827453613,1.522712230682373,247.68433513736449
1561309613782,,,,241.9963106909288
1561309613844,0.6703764796257019,8.092401504516602,0.4405331015586853,238.3468996362559
1561309613930,1.5705963373184204,9.136273384094238,1.4939818382263184,239.60216546229924
1561309613976,0.2298433631658554,9.797073364257813,-0.4118026793003082,138.4165839078681
1561309614013,,,,130.815430305101
1561309614069,0.35434186458587646,,0.7852981686592102,
1561309614070,,12.009315490722656,,253.04030310711084
1561309614120,4.663905143737793,,,
1561309614121,,9.634267807006836,-0.9002198576927185,174.99603083808657
1561309614136,,,,169.45610538342424
1561309614193,-2.853888511657715,,,
1561309614194,,,0.3447650372982025,349.71989850191306
1561309614195,,14.508862495422363,,351.07796977402245
1561309614281,1.4077905416488647,,0.9097966551780701,208.16123376922144
1561309614282,,5.602431774139404,,207.69406249037092
1561309614337,0.8140285611152649,6.789956092834473,0.6799532771110535,215.57677015110426
1561309614396,2.011129379272461,7.067683219909668,1.3215993642807007,206.40415394485728
1561309614419,,,,203.38284708625883
1561309614464,2.1356279850006104,9.241618156433105,-0.9385270476341248,152.72222387916304
1561309614474,,,,147.10466649439437
1561309614534,0.6607996821403503,14.346056938171387,3.7924153804779053,239.9112315222423
1561309614544,,,,237.36411737696113
1561309614614,1.3982137441635132,11.856086730957031,1.5322890281677246,209.14837368920666
1561309614676,0.7661445140838623,9.078812599182129,-0.363918662071228,138.16868902213167
1561309614702,,,,141.89015857254813
1561309614760,0.28730419278144836,,,
1561309614763,,9.41400146484375,1.3215993642807007,239.42294129847807
1561309614827,1.50355863571167,,,
1561309614828,,7.048529624938965,0.23942017555236816,178.64299668503654
1561309614883,2.691082715988159,,,
1561309614884,,10.54406452178955,0.5554547905921936,183.38738632877653
1561309614896,,,,184.96428576283563
1561309614960,2.63362193107605,9.825803756713867,-2.8634653091430664,133.275842029058
1561309614971,,,,133.49323328996118
1561309615030,-0.5554547905921936,13.579912185668945,2.1930887699127197,273.3065672048059
1561309615037,,,,274.1807016449733
1561309615093,1.599326729774475,,,
1561309615094,,8.312667846679688,-0.7182605266571045,153.3343864137146
1561309615115,,,,153.5824315636128
1561309615163,1.4269442558288574,,,
1561309615164,,8.02536392211914,1.072602391242981,209.77668279095616
1561309615186,,,,211.91498279365533
1561309615242,2.250549554824829,,,
1561309615244,,7.374141216278076,0.5267243981361389,189.84244784919383
1561309615309,1.4460978507995605,10.860098838806152,-0.4213795065879822,161.05401647782477
1561309615314,,,,160.15314184705676
1561309615373,-0.14365209639072418,,,
1561309615374,,12.287043571472168,1.5897499322891235,267.0614520390964
1561309615396,,,,265.20609945295416
1561309615443,1.0247182846069336,,,
1561309615444,,10.055646896362305,-1.1204863786697388,128.83425197406876
1561309615468,,,,127.7159587616409
1561309615513,0.9097966551780701,,,
1561309615514,,10.5344877243042,1.1683704853057861,222.23533032765295
1561309615525,,,,224.56096875890728
1561309615600,1.6759412288665771,7.383718013763428,1.1204863786697388,206.253807820847
1561309615658,1.5897499322891235,7.728483200073242,0.26815059781074524,185.60458867676766
1561309615672,,,,185.18562487307906
1561309615725,0.6512228846549988,10.065223693847656,2.078166961669922,243.86301505147162
1561309615738,,,,245.06036087335315
1561309615794,1.867477297782898,11.750741958618164,0.7182605266571045,197.13486324109795
1561309615832,,,,197.49347549328036
1561309615883,3.313575267791748,9.96945571899414,-0.28730419278144836,173.27179056325187
1561309615943,-2.4420857429504395,,-2.2218191623687744,48.419170045085366
1561309615944,,12.325350761413574,,
1561309615973,,,,49.30455380681576
1561309616004,2.3750481605529785,6.943184852600098,1.9153614044189453,215.1848675569073
1561309616014,,,,215.25025978802097
1561309616094,1.235408067703247,,,
1561309616096,,7.4986395835876465,0.10534487664699554,184.91506741967657
1561309616146,1.8195933103561401,7.4316020011901855,0.09576806426048279,182.21484775396038
1561309616158,,,,181.05632472732123
1561309616214,3.026270866394043,11.137825965881348,1.5610195398330688,203.287757192634
1561309616247,,,,200.41588121269706
1561309616285,1.599326729774475,11.511322021484375,-2.365471363067627,123.71558526665615
1561309616294,,,,121.58553613247432
1561309616372,0.689530074596405,,,
1561309616373,,10.218452453613281,1.3024457693099976,231.80125614706594
1561309616447,0.22026655077934265,11.329362869262695,0.9002198576927185,247.33023081003432
1561309616504,2.738966703414917,,,
1561309616505,,5.353435039520264,0.31603461503982544,182.3640054250551
1561309616516,,,,185.13363347311702
1561309616563,0.28730419278144836,,,
1561309616565,,9.097966194152832,0.43095630407333374,234.1969176776912
1561309616575,,,,235.72295952319047
1561309616645,1.6280571222305298,,3.7158010005950928,
1561309616646,,9.567230224609375,,238.86778352273944
1561309616707,1.1013327836990356,11.281478881835938,0.871489405632019,216.32074167625876
1561309616714,,,,215.5351742990589
1561309616780,3.773261785507202,,-1.091755986213684,164.71257998598543
1561309616781,,8.65743350982666,,
1561309616792,,,,164.5400903886859
1561309616846,-1.091755986213684,12.018892288208008,-0.028730420395731926,0.2832765729780249
1561309616854,,,,0.5676241516343907
1561309616913,1.4748282432556152,,,
1561309616914,,8.772355079650879,2.6240451335906982,233.78636866706006
1561309616928,,,,236.967870782452
1561309616984,2.011129379272461,,,
1561309616985,,7.833827972412109,1.0342950820922852,206.86926250657848
1561309616994,,,,207.15043407395126
1561309617056,1.7046716213226318,7.182605266571045,-0.2968810200691223,172.73719165691497
1561309617064,,,,171.8994962759696
1561309617124,1.6089035272598267,9.576807022094727,2.0398597717285156,229.03845828817407
1561309617150,,,,228.44872609485685
1561309617193,-0.009576806798577309,,,
1561309617194,,,2.0685901641845703,
1561309617195,,12.200851440429688,,266.72411582617866
1561309617207,,,,267.4408144059773
1561309617275,2.298433542251587,7.90086555480957,-1.6759412288665771,147.6976361973782
1561309617344,-0.9672574996948242,,3.8594532012939453,
1561309617345,,14.221558570861816,,278.59547637728105
1561309617406,0.6512228846549988,,1.5610195398330688,246.70440106695355
1561309617407,,9.423578262329102,,
1561309617414,,,,249.53522077978954
1561309617473,1.1971008777618408,,,
1561309617474,,8.456320762634277,-0.3064578175544739,171.13390037190285
1561309617484,,,,174.02852088177593
1561309617544,-0.33518823981285095,,1.6663644313812256,286.4094245236399
1561309617545,,10.228029251098633,,
1561309617572,,,,287.9817545611444
1561309617613,2.959233283996582,,,
1561309617614,,7.948749542236328,-0.5650315880775452,178.71441314299818
1561309617624,,,,178.20669786123446
1561309617683,-0.2298433631658554,,,
1561309617684,,11.291055679321289,-0.4596867263317108,73.12075408411158
1561309617699,,,,73.41051119927101
1561309617761,3.227383852005005,10.390835762023926,2.2218191623687744,221.51455412491987
1561309617764,,,,221.91835490865094
1561309617834,0.47884035110473633,,0.7565677165985107,245.7605099047928
1561309617835,,9.739612579345703,,
1561309617845,,,,245.5757737783115
1561309617893,1.158793568611145,,,
1561309617894,,8.925583839416504,1.1492167711257935,232.2445627449564
1561309617914,,,,227.0278418418191
1561309617963,2.719813108444214,,,
1561309617964,,6.914454460144043,0.6512228846549988,196.72610374002943
1561309617981,,,,194.1339240066045
1561309618034,0.22026655077934265,9.77791976928711,1.015141487121582,257.3512794546019
1561309618056,,,,256.1228835927535
1561309618109,1.4939818382263184,11.338939666748047,2.671929121017456,238.57736387923052
1561309618117,,,,237.15907509807732
1561309618198,2.6815059185028076,9.289502143859863,0.038307227194309235,178.59508973819808
1561309618250,0.4596867263317108,12.555193901062012,1.2066776752471924,244.85049648091535
1561309618259,,,,246.50907814725872
1561309618313,-0.9193734526634216,,,
1561309618315,,9.41400146484375,-0.3256114423274994,17.800798033752187
1561309618344,,,,18.607066006779064
1561309618384,0.8427590131759644,,,
1561309618385,,9.433155059814453,2.0590133666992188,245.76777039588058
1561309618395,,,,246.7241198230874
1561309618481,2.078166961669922,8.255207061767578,2.1930887699127197,226.51908837130156
1561309618527,0.5650315880775452,9.452308654785156,-0.727837324142456,128.25507925320835
1561309618537,,,,128.4971411573936
1561309618613,0.4596867263317108,,1.2449848651885986,
1561309618614,,12.09550666809082,,250.2261558860389
1561309618670,2.604891538619995,12.200851440429688,1.522712230682373,210.03419458304398
1561309618681,,,,210.17322991378876
1561309618737,-0.6224924325942993,,,
1561309618739,,11.386823654174805,-1.7046716213226318,68.95194129400511
1561309618744,,,,70.6190675270002
1561309618811,-0.47884035110473633,7.728483200073242,-0.28730419278144836,31.791545793742046
1561309618821,,,,31.881004196396304
1561309618878,1.0342950820922852,6.378153324127197,1.8291701078414917,243.6506644701759
1561309618890,,,,242.8682526403726
1561309618948,-0.17238251864910126,8.676587104797363,0.2968810200691223,300.05060320190853
1561309618977,,,,298.31852870009584
1561309619016,2.7964274883270264,,2.920926094055176,227.58314988171946
1561309619017,,11.252747535705566,,
1561309619025,,,,224.38768685966403
1561309619083,-1.0342950820922852,,,
1561309619084,,10.927136421203613,-0.2968810200691223,10.435310716786262
1561309619094,,,,9.10858574409906
1561309619164,0.727837324142456,10.409989356994629,-0.47884035110473633,139.26518027072882
1561309619225,-1.3024457693099976,,-0.038307227194309235,
1561309619226,,10.764330863952637,,352.1147924900304
1561309619256,,,,349.3746503686155
1561309619303,0.4692635238170624,,,
1561309619305,,6.7708024978637695,-1.1300631761550903,98.42592194009183
1561309619306,,,,96.06733467628135
1561309619369,-0.7661445140838623,9.107542991638184,0.23942017555236816,328.18710303491247
1561309619411,,,,323.668249880032
1561309619434,-1.6759412288665771,,,
1561309619435,,,-0.7086837291717529,
1561309619436,,10.60152530670166,,3.9033434007487244
1561309619448,,,,1.7377143170764384
1561309619528,3.19865345954895,10.007762908935547,0.7182605266571045,171.08113033037534
1561309619585,-0.7948749661445618,13.10107135772705,1.5514427423477173,270.2382686447177
1561309619650,1.4077905416488647,,,
1561309619651,,12.717999458312988,2.183511972427368,205.02214712857528
1561309619692,,,,197.9814105472077
1561309619732,2.691082715988159,7.422025203704834,1.3982137441635132,168.61043234152828
1561309619791,-0.3256114423274994,8.561665534973145,-0.06703764945268631,322.5871743683916
1561309619794,,,,316.32102905022765
1561309619853,2.8155810832977295,,,
1561309619854,,8.370129585266113,1.4652514457702637,153.63589828443565
1561309619864,,,,147.5193545996625
1561309619933,0.09576806426048279,,,
1561309619934,,12.038045883178711,-0.9097966551780701,35.10408850345527
1561309619935,,,,29.516911800114826
1561309619995,0.9959878921508789,,,
1561309619996,,9.806650161743164,0.2777273952960968,129.6781764875372
1561309620012,,,,123.76881976104721
1561309620079,-0.2968810200691223,,,
1561309620080,,7.977479934692383,2.1164743900299072,203.01583370139736
1561309620152,-0.4118026793003082,9.605537414550781,1.9249382019042969,203.70532763773178
1561309620209,-0.871489405632019,,,
1561309620210,,9.548076629638672,1.9728221893310547,209.1349865184335
1561309620214,,,,206.89596854623323
1561309620277,-0.20111294090747833,8.695740699768066,1.647210717201233,191.11280839330277
1561309620291,,,,188.69154731366825
1561309620354,-0.9672574996948242,,0.2298433631658554,
1561309620355,,9.691728591918945,,256.53309109392615
1561309620415,0.2585737705230713,10.400412559509277,0.5650315880775452,155.07586608601443
1561309620425,,,,152.32110052958654
1561309620485,-0.9672574996948242,12.057199478149414,0.9481038451194763,220.13063485567022
1561309620515,,,,215.83877620766594
1561309620572,0.40222588181495667,11.051634788513184,2.3080103397369385,163.3930010987173
1561309620627,0.8810662031173706,8.063671112060547,0.507570743560791,112.42981098404476
1561309620639,,,,108.5895371232051
1561309620695,-0.38307225704193115,,2.451662540435791,174.78206833214676
1561309620696,,11.473014831542969,,
1561309620705,,,,171.2858174394223
1561309620772,0.181959331035614,,2.0877439975738525,158.51408769155046
1561309620773,,9.27034854888916,,
1561309620788,,,,155.2552405139973
1561309620843,-0.08619125932455063,,1.5610195398330688,
1561309620844,,8.762778282165527,,162.58190247439993
1561309620915,0.15322890877723694,8.513781547546387,0.24899697303771973,123.45688502165274
1561309620974,1.0055646896362305,,,
1561309620975,,8.398859977722168,-0.3926490843296051,40.670672186448144
1561309620990,,,,37.40303797052775
1561309621045,0.5363011956214905,11.070788383483887,1.1300631761550903,123.34611301369347
1561309621060,,,,120.09983338421313
1561309621119,-0.8810662031173706,,,
1561309621120,,12.344504356384277,3.1316158771514893,160.48002104035524
1561309621178,,,,156.85892794998128
1561309621193,-0.31603461503982544,10.27591323852539,3.5051112174987793,147.32858741614407
1561309621195,,,,143.5911079023131
1561309621265,0.9289502501487732,8.40843677520752,2.0207061767578125,115.47023554213013
1561309621324,-0.8810662031173706,8.9064302444458,0.7182605266571045,182.37929138841764
1561309621348,,,,179.92469534316777
1561309621394,0.689530074596405,,,
1561309621395,,7.144298076629639,1.1204863786697388,101.46085502608446
1561309621407,,,,98.38525499377357
1561309621488,0.4884171485900879,,0.8236053586006165,98.13031135281369
1561309621489,,7.46033239364624,,
1561309621540,0.8523358106613159,8.149862289428711,0.6129156351089478,71.50068785449793
1561309621549,,,,68.45394537143034
1561309621619,1.5322890281677246,,2.6240451335906982,
1561309621620,,8.686163902282715,,96.89035881088955
1561309621676,2.3558945655822754,,,
1561309621677,,11.894393920898438,2.0015525817871094,73.52200720728234
1561309621686,,,,73.2207139026147
1561309621772,-0.7757213711738586,12.842497825622559,1.0534487962722778,154.27424776426506
1561309621816,2.8634653091430664,,1.944091796875,68.50130590313518
1561309621817,,9.979032516479492,,
1561309621835,,,,67.90959295495867
1561309621883,-0.5171475410461426,,,
1561309621884,,13.129801750183105,2.0207061767578125,131.82002818860482
1561309621912,,,,130.64668365146665
1561309621959,0.4596867263317108,,,
1561309621960,,8.130708694458008,1.7812861204147339,104.34785304484379
1561309621992,,,,101.79052776675348
1561309622033,0.08619125932455063,6.550535678863525,-0.47884035110473633,298.9650539163617
1561309622061,,,,297.47383237525116
1561309622099,1.9057846069335938,7.977479934692383,1.0342950820922852,54.95810287341584
1561309622114,,,,54.388287511718374
1561309622170,1.8195933103561401,10.649409294128418,0.9097966551780701,49.74135806461646
1561309622186,,,,47.83506934273879
1561309622236,1.455674648284912,,3.7253777980804443,
1561309622269,,,,91.73705621419583
1561309622325,0.20111294090747833,11.702857971191406,3.6104562282562256,109.24466154763604
1561309622378,1.158793568611145,9.730035781860352,1.0055646896362305,60.06564661776508
1561309622394,,,,60.144221113976926
1561309622449,-1.3215993642807007,9.117119789123535,0.19153612852096558,186.04553202920533
1561309622464,,,,185.01256153988925
1561309622518,0.4405331015586853,6.406883716583252,0.8523358106613159,80.88221222669893
1561309622542,,,,79.31555807639472
1561309622585,0.06703764945268631,8.015787124633789,0.8236053586006165,100.40003785552227
1561309622604,,,,102.67767371728974
1561309622653,1.3120225667953491,,,
1561309622654,,9.481039047241211,2.1930887699127197,82.11029389984554
1561309622674,,,,84.05962305877802
1561309622734,1.522712230682373,,2.4229321479797363,81.58553729610264
1561309622735,,12.267889976501465,,
1561309622769,,,,82.79241123187637
1561309622793,1.800439715385437,,0.45010992884635925,
1561309622794,,11.022904396057129,,34.74059949620556
1561309622819,,,,35.858349708594346
1561309622864,3.064578056335449,11.204863548278809,2.0590133666992188,62.891439311371926
1561309622884,,,,63.67993000953658
1561309622953,1.656787633895874,,1.2066776752471924,63.914649460364046
1561309622954,,7.51779317855835,,
1561309622962,,,,64.9106822866487
1561309623008,1.292868971824646,8.983044624328613,2.557007312774658,93.48475135864032
1561309623050,,,,92.43862592498283
1561309623073,1.6089035272598267,,1.0630255937576294,
1561309623074,,7.565677165985107,,60.216791873908335
1561309623105,,,,58.80448633846811
1561309623151,0.9768342971801758,8.609549522399902,0.727837324142456,58.11720538342473
1561309623174,,,,58.31645566189235
1561309623213,1.3886369466781616,,1.3886369466781616,69.72593150056184
1561309623214,,9.117119789123535,,
1561309623251,,,,70.21941949828442
1561309623293,-0.6129156351089478,13.206416130065918,0.7852981686592102,146.98272029695295
1561309623314,,,,150.35826808666496
1561309623357,1.1971008777618408,,,
1561309623358,,10.8505220413208,3.265691041946411,102.03085480288951
1561309623386,,,,102.9909335133832
1561309623428,-0.8236053586006165,11.022904396057129,-0.17238251864910126,212.1188092988669
1561309623472,,,,211.58446993971847
1561309623493,1.4748282432556152,,,
1561309623494,,10.90798282623291,3.4189200401306152,100.50727182549144
1561309623528,,,,98.38315129550921
1561309623571,0.3734954595565796,8.801085472106934,0.7948749661445618,88.18836995921316
1561309623594,,,,87.33137929386248
1561309623636,2.164358377456665,,2.1930887699127197,
1561309623637,,7.287950038909912,,80.31986226176423
1561309623669,,,,78.66108935012414
1561309623724,-0.3064578175544739,9.289502143859863,2.1356279850006104,122.11244424580576
1561309623737,,,,122.67127666331788
1561309623789,0.9385270476341248,8.446743965148926,2.38462495803833,96.99846704507252
1561309623806,,,,99.30403155035617
1561309623844,0.6799532771110535,9.002198219299316,0.6033388376235962,66.44977662365181
1561309623890,,,,70.17218874017374
1561309623913,-2.4420857429504395,,,
1561309623914,,13.761871337890625,1.1013327836990356,181.22391024879653
1561309623946,,,,185.25455514218288
1561309623993,4.568136692047119,,1.0630255937576294,59.455656083369604
1561309623994,,9.069235801696777,,
1561309624014,,,,63.49496848681264
1561309624066,-1.4077905416488647,,,
1561309624067,,,1.0630255937576294,
1561309624069,,13.895946502685547,,176.31659327259518
1561309624086,,,,177.1265580855103
1561309624129,1.292868971824646,7.872135162353516,1.5705963373184204,93.12031295509598
1561309624158,,,,91.71841662795083
1561309624207,1.235408067703247,,2.2697031497955322,103.0265802706615
1561309624208,,8.877699851989746,,
1561309624226,,,,100.25180225996547
1561309624271,-0.5937620401382446,,,
1561309624272,,7.3454108238220215,-1.5705963373184204,270.1198263343205
1561309624305,,,,271.4118795592335
1561309624343,0.13407529890537262,8.628703117370605,0.6224924325942993,110.84694196465102
1561309624390,,,,110.94850687760908
1561309624409,1.6376339197158813,10.496180534362793,-0.8236053586006165,4.376068050281333
1561309624460,,,,3.8084366415709496
1561309624492,,,,166.07237502708657
1561309624493,-2.279279947280884,13.819332122802734,2.3367409706115723,
1561309624506,,,,165.4837629847932
1561309624573,1.1109095811843872,,,
1561309624574,,,3.1220390796661377,
1561309624575,,12.29662036895752,,109.17184490089454
1561309624629,0.33518823981285095,,,
1561309624630,,9.327810287475586,1.1300631761550903,104.66025223710182
1561309624646,,,,102.9003105634755
1561309624702,-0.5841852426528931,,0.13407529890537262,
1561309624703,,7.546523571014404,,191.34611399497203
1561309624714,,,,191.3742680347309
1561309624764,0.9959878921508789,6.4834980964660645,-0.35434186458587646,6.00301356104967
1561309624813,,,,5.792612144988368
1561309624844,1.0247182846069336,8.398859977722168,0.5554547905921936,57.886092272479004
1561309624857,,,,59.38223837998112
1561309624900,3.2561142444610596,9.624691009521484,-0.6224924325942993,20.796122852747942
1561309624924,,,,24.18964770035541
1561309624963,-2.5474305152893066,,1.1300631761550903,
1561309624964,,15.782577514648438,,184.20554736869565
1561309625002,,,,184.72275661340564
1561309625033,3.648763418197632,,,
1561309625034,,10.362105369567871,1.3311761617660522,64.66825155224825
1561309625064,,,,67.01567828695488
1561309625106,-1.5610195398330688,14.834473609924316,3.045424461364746,151.71964773165357
1561309625140,,,,153.82408365644784
1561309625185,2.557007312774658,,3.1220390796661377,
1561309625186,,6.339846134185791,,108.52836594899847
1561309625207,,,,107.80140159487735
1561309625250,-0.3734954595565796,7.824251174926758,-0.545877993106842,264.00327581935824
1561309625295,,,,263.21278387576683
1561309625352,0.6033388376235962,,,
1561309625355,,6.426037311553955,-0.8906430602073669,331.5831021185468
1561309625386,1.3024457693099976,,1.4748282432556152,
1561309625387,,8.9064302444458,,89.6796188210804
1561309625436,,,,89.40499740512166
1561309625457,1.886630892753601,11.712434768676758,-0.7757213711738586,10.256849826604878
1561309625503,,,,8.894124634349794
1561309625523,1.5418659448623657,,,
1561309625524,,10.285490036010742,-0.12449848651885986,28.75654440585771
1561309625564,,,,27.304541810961382
1561309625609,-1.4748282432556152,,,
1561309625611,,12.813767433166504,-0.1149216815829277,210.68172383711783
1561309625627,,,,209.8000420379176
1561309625666,1.5897499322891235,8.35097599029541,2.2409727573394775,96.20890400720822
1561309625694,,,,95.22287740805768
1561309625739,-0.6703764796257019,9.040505409240723,-0.43095630407333374,236.20103178395635
1561309625774,,,,235.96571810667103
1561309625828,0.8523358106613159,,,
1561309625830,,,0.2298433631658554,44.84890380742007
1561309625831,,8.33182144165039,,
1561309625843,,,,44.35805226271708
1561309625885,-0.3734954595565796,9.366117477416992,0.4884171485900879,154.5743252952604
1561309625908,,,,155.84637972628357
1561309625944,2.4229321479797363,9.308655738830566,0.15322890877723694,38.42341359101431
1561309625993,,,,39.48044683677631
1561309626014,-0.047884032130241394,13.0914945602417,1.5610195398330688,124.02855819480448
1561309626073,,,,125.71479529709723
1561309626086,1.2641384601593018,,,
1561309626093,,11.27190113067627,0.9385270476341248,72.34550712274762
1561309626134,,,,72.84913795138766
1561309626179,2.1930887699127197,7.489062786102295,-0.15322890877723694,34.344421203588126
1561309626188,,,,34.34515203382932
1561309626252,0.6512228846549988,,0.9768342971801758,
1561309626253,,9.011775016784668,,92.17033609438477
1561309626267,,,,90.83501362107972
1561309626312,2.0685901641845703,7.115567684173584,1.2545616626739502,76.01639912236016
1561309626324,,,,74.61295917246264
1561309626364,0.6129156351089478,9.615114212036133,1.3694833517074585,99.92678087812124
1561309626394,,,,97.86384518272394
1561309626465,2.4420857429504395,,0.49799394607543945,45.96588903862187
1561309626466,,9.634267807006836,,46.03088170366914
1561309626510,0.06703764945268631,,0.2777273952960968,
1561309626511,,10.515334129333496,,102.07362544747218
1561309626544,,,,103.47756400117908
1561309626591,0.019153613597154617,10.515334129333496,0.9768342971801758,118.60478693716738
1561309626611,,,,115.40245274480691
1561309626651,-2.9879636764526367,,,
1561309626653,,10.888829231262207,-0.181959331035614,202.03818774435842
1561309626690,,,,200.76430282263766
1561309626713,-0.3447650372982025,,,
1561309626714,,6.8378400802612305,-1.8962076902389526,267.27054462015803
1561309626751,,,,265.56640559205067
1561309626788,0.15322890877723694,,,
1561309626789,,,0.5171475410461426,
1561309626790,,7.996633529663086,,96.5168499161274
1561309626814,,,,95.39771659043163
1561309626881,0.43095630407333374,9.097966194152832,0.33518823981285095,59.047115148354465
1561309626890,,,,56.875620426289004
1561309626950,1.2545616626739502,,2.557007312774658,
1561309626951,,14.48970890045166,,90.35064392589913
1561309626962,,,,88.89982978391834
1561309627030,1.6184803247451782,,0.1149216815829277,22.10694372995283
1561309627031,,10.333374977111816,,
1561309627087,1.6663644313812256,11.492168426513672,0.7757213711738586,45.33242997423821
1561309627121,,,,42.24057750679725
1561309627160,0.6607996821403503,6.45476770401001,-0.9289502501487732,308.22969667639086
1561309627172,,,,303.164052727505
1561309627210,3.6966474056243896,5.841852188110352,1.50355863571167,74.79702594040532
1561309627235,,,,69.35597430416806
1561309627277,-3.026270866394043,11.080365180969238,-2.6431987285614014,213.25434190875984
1561309627318,,,,210.84721932070727
1561309627346,0.8619126081466675,8.705317497253418,1.8387469053268433,81.49685411991919
1561309627375,,,,78.97256646684423
1561309627418,1.4460978507995605,11.568782806396484,3.8498764038085938,93.23823617111623
1561309627459,,,,91.44424600447735
1561309627484,-0.4213795065879822,12.85207462310791,0.38307225704193115,134.4724775112659
1561309627532,,,,133.0308294831513
1561309627563,,,,157.1949049552542
1561309627564,-1.8579005002975464,15.648502349853516,0.6512228846549988,
1561309627602,,,,155.08430819982857
1561309627631,1.5705963373184204,9.107542991638184,0.1628057211637497,353.60130034684
1561309627668,,,,342.15606932163917
1561309627694,1.158793568611145,7.096413612365723,0.038307227194309235,336.9534817874419
1561309627728,,,,328.24816834118695
1561309627770,1.8100165128707886,8.341399192810059,2.6815059185028076,90.97995706545657
1561309627795,,,,104.8837018757988
1561309627843,1.1300631761550903,,,
1561309627845,,10.218452453613281,-0.6512228846549988,292.64783244358443
1561309627881,,,,296.0381197815253
1561309627932,-1.580173134803772,12.267889976501465,4.683058738708496,139.87743842792878
1561309627979,1.7621324062347412,8.14028549194336,0.47884035110473633,146.6955791442456
1561309628036,,,,102.06246491836839
1561309628048,-0.08619125932455063,10.984597206115723,0.727837324142456,113.6764161302205
1561309628093,,,,119.0955087082761
1561309628147,0.4596867263317108,,,
1561309628148,,9.442731857299805,1.656787633895874,132.78731957886203
1561309628184,-0.26815059781074524,9.011775016784668,-0.7182605266571045,206.37003031976394
1561309628215,,,,198.2393594714024
1561309628254,1.2641384601593018,9.500192642211914,2.126051187515259,176.08862887885684
1561309628308,,,,181.97245800069493
1561309628351,0.871489405632019,,,
1561309628352,,9.385271072387695,0.31603461503982544,163.63704375776186
1561309628360,,,,167.22965495929685
1561309628408,2.346317768096924,10.113107681274414,0.9864110946655273,172.8143318134011
1561309628450,,,,172.59770553368497
1561309628480,-1.6663644313812256,11.808202743530273,4.271255970001221,210.04780031987065
1561309628520,,,,216.7523549902902
1561309628533,0.7852981686592102,,1.091755986213684,
1561309628534,,7.374141216278076,,193.55496985179752
1561309628577,,,,194.4923996550035
1561309628623,-2.2409727573394775,,,
1561309628624,,11.27190113067627,1.6950948238372803,252.67265451465659
1561309628648,,,,260.44872243187854
1561309628693,0.6607996821403503,8.197746276855469,2.4899697303771973,207.4991698725937
1561309628705,,,,209.15969814285057
1561309628749,-0.05746084079146385,7.307103633880615,0.6799532771110535,235.53217867929368
1561309628785,,,,235.61296615679657
1561309628813,1.235408067703247,,,
1561309628814,,7.469909191131592,2.0590133666992188,198.53656832294632
1561309628846,,,,197.6116514262999
1561309628902,0.6416460275650024,8.418013572692871,0.6416460275650024,189.51875152404853
1561309628914,,,,185.638029282944
1561309628961,0.3064578175544739,9.308655738830566,0.028730420395731926,148.34190062102883
1561309628985,,,,142.38126283425038
1561309629033,-1.9919757843017578,16.060304641723633,2.1164743900299072,254.07417518139732
1561309629081,,,,256.6523325364562
1561309629099,5.1331682205200195,,,
1561309629100,,7.747636795043945,-0.9864110946655273,147.94372791317375
1561309629150,,,,149.27581970700135
1561309629165,-1.4077905416488647,14.79616641998291,1.9057846069335938,253.44650128724066
1561309629221,,,,255.91758176668122
1561309629234,1.1971008777618408,7.441178798675537,1.2832920551300049,186.89672386395068
1561309629281,,,,187.97022469580156
1561309629323,0.38307225704193115,7.010222434997559,-0.5554547905921936,95.84283318845223
1561309629365,,,,99.22306648793483
1561309629380,1.292868971824646,,-0.35434186458587646,140.42541084466055
1561309629381,,7.46033239364624,,
1561309629435,,,,139.00566040302502
1561309629453,0.6991068720817566,10.754754066467285,2.1930887699127197,210.1581625164797
1561309629507,,,,209.07784515583717
1561309629520,3.428496837615967,,-2.011129379272461,
1561309629521,,9.720458984375,,132.80306999508807
1561309629587,,,,131.95335348120346
1561309629588,-0.9193734526634216,14.92066478729248,5.9088897705078125,
1561309629624,,,,224.86112825217265
1561309629680,1.1683704853057861,10.314221382141113,0.6033388376235962,171.88268035023302
1561309629692,,,,173.0607103971418
1561309629738,-1.2832920551300049,11.003750801086426,1.4269442558288574,264.7875796115616
1561309629760,,,,268.0517611668566
1561309629815,-0.20111294090747833,6.799532890319824,0.45010992884635925,257.2525695607169
1561309629855,,,,257.8228220545213
1561309629867,1.1779472827911377,5.449203014373779,1.4269442558288574,194.31984175581226
1561309629916,,,,198.40146718116353
1561309629937,-0.363918662071228,,,
1561309629938,,9.078812599182129,-0.1628057211637497,357.5649993545198
1561309629994,,,,356.86225976039395
1561309630011,1.8962076902389526,,,
1561309630012,,12.124237060546875,1.4077905416488647,187.97889903604755
1561309630065,,,,188.79505200035067
1561309630074,1.0055646896362305,11.022904396057129,-0.7086837291717529,124.43260486534575
