timestamp,AccX,AccY,AccZ,CompassSensor
1561309279876,1.3311761617660522,9.433155059814453,2.6431987285614014,171.8693614813515
1561309279908,,,,169.79064804897146
1561309279924,0.9385270476341248,8.676587104797363,1.8579005002975464,169.61922396118248
1561309279975,,,,169.55033467321374
1561309279993,,9.136273384094238,,
1561309279994,0.7661445140838623,,2.126051187515259,176.07718148180788
1561309280044,,,,175.30685908683552
1561309280066,,9.66299819946289,,
1561309280067,1.0630255937576294,,-0.038307227194309235,105.10406426899092
1561309280114,,,,103.87417259571424
1561309280134,0.7086837291717529,9.816226959228516,3.7253777980804443,182.66471133345408
1561309280185,,,,181.91069943021967
1561309280203,,9.452308654785156,,
1561309280204,1.4460978507995605,,0.5363011956214905,125.64820095268959
1561309280254,,,,126.04059532050684
1561309280275,1.522712230682373,9.873687744140625,0.2106897532939911,113.90934607148543
1561309280327,,,,114.59228302621665
1561309280343,,9.816226959228516,,
1561309280344,1.1875240802764893,,0.6991068720817566,136.19633529550708
1561309280404,,,,134.3533999932759
1561309280428,,10.247182846069336,1.742978811264038,
1561309280429,0.7852981686592102,,,168.34752469999617
1561309280470,,,,166.67382782501954
1561309280487,,10.515334129333496,-0.009576806798577309,102.02894234992192
1561309280488,1.216254472732544,,,
1561309280535,,,,101.42173170251863
1561309280554,,11.310209274291992,,
1561309280557,0.20111294090747833,,2.604891538619995,185.1478402665906
1561309280604,,,,186.8538985778547
1561309280629,-2.1739351749420166,10.821791648864746,0.727837324142456,259.4206218674407
1561309280677,,,,259.11943101561064
1561309280695,-0.4884171485900879,9.672574996948242,1.522712230682373,207.6719736585951
1561309280744,,,,207.3256967280538
1561309280767,-0.8044517636299133,10.630255699157715,3.2178070545196533,203.52908143638888
1561309280815,,,,202.5072578157982
1561309280835,,9.346963882446289,0.8906430602073669,127.82868420370278
1561309280836,1.7621324062347412,,,
1561309280884,,,,126.93831440387828
1561309280904,0.9289502501487732,10.342951774597168,-0.3256114423274994,80.47156759341942
1561309280954,,,,78.8855293662507
1561309280979,0.05746084079146385,10.323798179626465,0.12449848651885986,162.2521682620284
1561309281029,,,,162.46070759776723
1561309281044,1.9153614044189453,11.501745223999023,1.1109095811843872,128.62487935525118
1561309281095,,,,128.2350941196969
1561309281113,,10.247182846069336,,
1561309281115,1.3982137441635132,,3.19865345954895,163.49848654025897
1561309281165,,,,163.4016754389632
1561309281184,,8.96389102935791,,
1561309281185,2.499546527862549,,3.2561142444610596,149.30768936966862
1561309281237,,,,149.92306209313008
1561309281254,,8.83939266204834,0.8906430602073669,
1561309281256,0.689530074596405,,,150.16125811024511
1561309281307,,,,152.3466454370824
1561309281328,0.4405331015586853,8.724471092224121,0.5267243981361389,150.08764233137072
1561309281379,,,,151.1052039139192
1561309281395,,10.496180534362793,,
1561309281396,1.7142484188079834,,-0.05746084079146385,100.27419162006481
1561309281444,,,,101.36484988711078
1561309281468,,12.85207462310791,1.1300631761550903,214.52810388707553
1561309281469,-0.47884035110473633,,,
1561309281514,,,,218.28358777955862
1561309281536,1.4460978507995605,9.96945571899414,2.346317768096924,164.85314527910427
1561309281584,,,,168.96735070679648
1561309281604,-0.6703764796257019,7.824251174926758,1.015141487121582,231.76211916312172
1561309281654,,,,234.24740643603593
1561309281678,1.359906554222107,7.489062786102295,1.1971008777618408,155.75041556844488
1561309281735,,,,157.51272731771323
1561309281744,,9.931148529052734,-0.047884032130241394,
1561309281745,-0.6512228846549988,,,297.72997812950496
1561309281794,,,,302.41253725841227
1561309281814,0.5841852426528931,10.400412559509277,0.9193734526634216,177.10478344243631
1561309281866,,,,177.3173662501638
1561309281885,-0.019153613597154617,10.582371711730957,-0.12449848651885986,21.00656439617063
1561309281942,,,,21.167311190739554
1561309281960,0.7661445140838623,10.218452453613281,0.3926490843296051,147.85082368008324
1561309282011,,,,149.18066151148471
1561309282028,1.8291701078414917,13.924676895141602,5.726930618286133,192.4455422249124
1561309282079,,,,195.07506943271892
1561309282095,2.9688100814819336,7.785943984985352,0.3256114423274994,134.6493657503909
1561309282145,,,,136.49646746801577
1561309282164,1.580173134803772,6.387730121612549,-0.3926490843296051,116.7860578253547
1561309282223,,,,117.24944517940509
1561309282243,1.3120225667953491,8.101978302001953,1.4269442558288574,173.697284027787
1561309282293,,,,174.52951525739635
1561309282307,1.4748282432556152,9.308655738830566,-0.5554547905921936,110.44687729439585
1561309282365,,,,112.29325501196871
1561309282382,,10.936713218688965,,
1561309282383,2.5665841102600098,,0.689530074596405,146.68973250231608
1561309282431,,,,151.60158108166073
1561309282448,,11.798625946044922,,
1561309282450,,,0.8906430602073669,
1561309282451,2.011129379272461,,,159.3387920526945
1561309282507,,,,160.75650709795735
1561309282525,0.507570743560791,10.869675636291504,2.403778553009033,210.8006374305678
1561309282568,,,,212.8496532004366
1561309282586,1.6280571222305298,9.078812599182129,3.8977603912353516,202.16427303643684
1561309282634,,,,205.99956085918245
1561309282653,,8.829815864562988,,
1561309282654,0.2585737705230713,,1.015141487121582,216.04928263788577
1561309282704,,,,214.75041288418106
1561309282729,0.7852981686592102,8.772355079650879,0.4884171485900879,173.17373636752717
1561309282779,,,,171.46340235784263
1561309282794,0.4692635238170624,8.724471092224121,0.6607996821403503,193.07691125141002
1561309282846,,,,197.0340223281919
1561309282864,,8.40843677520752,,
1561309282865,0.3734954595565796,,-0.13407529890537262,124.90350542748308
1561309282917,,,,122.30109407068153
1561309282933,,9.030928611755371,,
1561309282934,-0.3734954595565796,,-1.1204863786697388,35.18134818825189
1561309282985,,,,36.24461398163152
1561309283003,,9.174580574035645,,
1561309283004,1.455674648284912,,0.727837324142456,169.05379358093217
1561309283054,,,,156.66316106799036
1561309283084,,10.697293281555176,,
1561309283089,1.656787633895874,,0.8044517636299133,155.998337774938
1561309283128,,,,136.17380933162437
1561309283145,,11.453861236572266,,
1561309283150,1.6184803247451782,,2.011129379272461,158.4123315332956
1561309283194,,,,132.40843532522308
1561309283219,1.6089035272598267,10.218452453613281,0.7182605266571045,105.86433945569422
1561309283264,,,,83.01435822895593
1561309283286,2.2601263523101807,8.054094314575195,-0.019153613597154617,63.94080908488519
1561309283337,,,,46.53907851376931
1561309283353,,8.695740699768066,,
1561309283361,1.1109095811843872,,0.28730419278144836,56.383477975832875
1561309283404,,,,50.363793203679734
1561309283432,1.4173674583435059,8.465897560119629,-0.4213795065879822,17.68270064790812
1561309283479,,,,14.314751443647765
1561309283494,1.1683704853057861,10.08437728881836,-0.8236053586006165,353.96064385615034
1561309283548,,,,353.2498422909264
1561309283564,1.5610195398330688,10.716446876525879,-0.9864110946655273,356.26204322670077
1561309283614,,,,356.88709069967814
1561309283633,,11.41555404663086,,
1561309283635,1.3694833517074585,,0.9097966551780701,65.54763157769821
1561309283685,,,,64.07065098100713
1561309283704,0.8140285611152649,11.070788383483887,-1.139639973640442,332.8271083777433
1561309283754,,,,331.07942177103524
1561309283786,,11.348516464233398,5.7556610107421875,110.97933152133336
1561309283787,0.9576807022094727,,,
1561309283826,,,,109.73283565818437
1561309283844,0.9576807022094727,10.582371711730957,1.7046716213226318,88.57242466605379
1561309283907,,,,87.91577710943795
1561309283925,1.2258312702178955,8.20732307434082,0.5267243981361389,50.141501282047045
1561309283964,,,,48.91940968480253
1561309283983,,8.858546257019043,,
1561309283984,1.2258312702178955,,0.15322890877723694,32.15934465035809
1561309284034,,,,30.38885374955862
1561309284054,0.4692635238170624,8.877699851989746,0.10534487664699554,35.31928727363487
1561309284104,,,,34.15261583131581
1561309284124,-0.6033388376235962,12.124237060546875,0.06703764945268631,194.73422933275697
1561309284177,,,,194.28265820597062
1561309284193,,11.97100830078125,,
1561309284195,1.2737152576446533,,1.359906554222107,69.19815595320574
1561309284244,,,,69.65584009929916
1561309284263,,12.966996192932129,,
1561309284264,-0.6607996821403503,,-0.22026655077934265,219.28770754982054
1561309284318,,,,219.3297951754862
1561309284334,3.1890766620635986,8.121131896972656,2.164358377456665,62.15591673022078
1561309284384,,,,63.73510427765194
1561309284403,,9.490615844726563,,
1561309284404,1.7334020137786865,,2.691082715988159,83.94495784299181
1561309284454,,,,85.84347039449938
1561309284479,,8.178592681884766,,
1561309284480,1.867477297782898,,1.7046716213226318,71.18995522839737
1561309284527,,,,73.20637050535771
1561309284545,,8.47547435760498,0.7948749661445618,
1561309284546,0.8810662031173706,,,70.88793109348853
1561309284597,,,,72.41372022198857
1561309284615,2.38462495803833,9.921571731567383,2.3080103397369385,76.66027422522808
1561309284664,,,,78.33261872274903
1561309284684,1.0055646896362305,12.22000503540039,1.6089035272598267,90.24085546518035
1561309284734,,,,91.4811085354279
1561309284753,,10.582371711730957,,
1561309284754,1.3503297567367554,,1.7334020137786865,86.08653633649266
1561309284804,,,,87.86625823795532
1561309284831,1.015141487121582,10.496180534362793,0.7086837291717529,70.01564763458623
1561309284881,,,,70.56732201384818
1561309284901,,8.667010307312012,,
1561309284902,,,3.1699230670928955,130.56166145667834
1561309284903,-0.3064578175544739,,,
1561309284951,,,,130.7408582997428
1561309284967,1.5418659448623657,7.843404769897461,2.126051187515259,91.53237593533805
1561309285017,,,,91.69217504115966
1561309285033,,10.046070098876953,,
1561309285034,-1.7334020137786865,,-0.6607996821403503,234.63771076596714
1561309285085,,,,234.8247486661988
1561309285104,,8.638279914855957,,
1561309285105,,,1.3311761617660522,74.3742645515382
1561309285106,1.8291701078414917,,,
1561309285154,,,,74.56055113096113
1561309285186,,12.823344230651855,,
1561309285189,0.1628057211637497,,1.5610195398330688,120.22355543083876
1561309285226,,,,120.39247966939149
1561309285245,-1.0534487962722778,12.047622680664063,1.3024457693099976,164.5167721228595
1561309285298,,,,165.6158042018279
1561309285315,,9.988609313964844,,
1561309285316,1.7812861204147339,,2.6431987285614014,96.22626634807841
1561309285375,,,,96.82133974932657
1561309285390,,8.801085472106934,,
1561309285391,1.0534487962722778,,0.9385270476341248,80.92497604109235
1561309285434,,,,81.97922939986216
1561309285453,,7.489062786102295,,
1561309285454,0.4692635238170624,,0.9002198576927185,102.1953803996168
1561309285514,,,,103.77279892805291
1561309285537,1.50355863571167,6.426037311553955,0.12449848651885986,47.442927691920886
1561309285590,,,,47.91894406574659
1561309285609,0.2298433631658554,9.77791976928711,1.4652514457702637,122.61887545200551
1561309285644,,,,123.32048614392758
1561309285664,2.298433542251587,10.08437728881836,1.2641384601593018,73.50403014938684
1561309285715,,,,74.0618312083343
1561309285733,,12.325350761413574,,
1561309285734,0.9576807022094727,,1.3311761617660522,97.37755620438656
1561309285784,,,,97.92246869637017
1561309285803,,10.371682167053223,,
1561309285805,,,-0.4692635238170624,
1561309285806,1.8579005002975464,,,29.394371376215588
1561309285856,,,,29.172810284824152
1561309285874,,10.381258964538574,,
1561309285875,0.5267243981361389,,4.683058738708496,127.44430847797116
1561309285941,,,,127.1178800771579
1561309285958,,,,85.30092114796861
1561309285959,1.9728221893310547,8.973467826843262,1.647210717201233,
1561309285997,,,,84.57461932219695
1561309286015,,10.27591323852539,,
1561309286016,-1.158793568611145,,0.5937620401382446,193.02278883242684
1561309286075,,,,192.14642092040083
1561309286090,0.47884035110473633,8.465897560119629,2.231395959854126,120.20725859947908
1561309286134,,,,120.03512417201642
1561309286163,,10.228029251098633,,
1561309286164,-0.4213795065879822,,2.231395959854126,141.43890163446372
1561309286207,,,,141.97825435246295
1561309286227,,,,107.22582155352035
1561309286228,1.8483237028121948,11.061211585998535,3.5434184074401855,
1561309286282,,,,105.88721375922461
1561309286296,,10.189722061157227,,
1561309286298,0.8906430602073669,,-0.7661445140838623,357.76545558826274
1561309286351,,,,357.1202697294044
1561309286375,3.0166940689086914,8.992621421813965,6.033388137817383,108.23132102199463
1561309286426,,,,108.52899432640211
1561309286449,,8.513781547546387,1.5705963373184204,85.0440172427169
1561309286450,1.7142484188079834,,,
1561309286488,,,,86.65035479209882
1561309286504,,,,50.00129457385964
1561309286505,0.9768342971801758,8.322244644165039,0.15322890877723694,
1561309286557,,,,51.218618699063484
1561309286583,1.235408067703247,8.954314231872559,1.6855180263519287,98.22343415195763
1561309286631,,,,99.18272739069675
1561309286648,2.030282974243164,9.53849983215332,1.5514427423477173,83.93750610660732
1561309286699,,,,84.65855551690726
1561309286716,,11.463438034057617,,
1561309286718,1.6280571222305298,,2.9017724990844727,107.3030095213307
1561309286768,,,,108.70678415049755
1561309286784,,10.065223693847656,,
1561309286786,,,0.9576807022094727,76.67199482984381
1561309286787,1.7046716213226318,,,
1561309286836,,,,76.82917114302415
1561309286854,-0.871489405632019,9.921571731567383,3.1028854846954346,151.0392242865369
1561309286904,,,,150.92110299503068
1561309286936,2.585737943649292,8.398859977722168,3.7158010005950928,106.38080420978474
1561309286988,,,,109.21518928136743
1561309287003,,8.916007041931152,,
1561309287004,-0.09576806426048279,,2.2218191623687744,140.77694702086276
1561309287057,,,,143.2293127819775
1561309287079,-0.10534487664699554,8.705317497253418,0.5746083855628967,149.28174831120091
1561309287121,,,,151.6801692382509
1561309287137,,9.519346237182617,0.9959878921508789,
1561309287138,0.4405331015586853,,,119.14524614581217
1561309287195,,,,120.58948964581134
1561309287211,0.5841852426528931,12.018892288208008,1.9823989868164063,128.81816004838421
1561309287261,,,,128.65722713116037
1561309287277,0.5267243981361389,12.334927558898926,1.1492167711257935,119.41364525943698
1561309287326,,,,120.0323511152134
1561309287344,1.5418659448623657,10.515334129333496,5.276820659637451,132.67197134415883
1561309287400,,,,131.93909204621647
1561309287421,,8.53293514251709,1.2545616626739502,
1561309287422,2.432508945465088,,,87.73693543621033
1561309287478,,,,87.34111231342973
1561309287501,1.7908629179000854,7.479485988616943,0.24899697303771973,65.59991667579465
1561309287536,,,,67.48016530146162
1561309287554,0.6033388376235962,7.565677165985107,0.6799532771110535,104.2228742434109
1561309287605,,,,105.32648937931239
1561309287626,,,,83.41732572960836
1561309287629,1.3982137441635132,8.753201484680176,0.6416460275650024,
1561309287683,,,,84.23341722220897
1561309287697,,10.869675636291504,,
1561309287698,1.4939818382263184,,1.3694833517074585,102.00082929129815
1561309287751,,,,102.91813735720922
1561309287774,,10.773907661437988,,
1561309287777,,,1.8100165128707886,
1561309287778,1.4077905416488647,,,112.67140160517732
1561309287819,,,,112.42407362514197
1561309287838,,13.043610572814941,4.271255970001221,
1561309287839,-1.455674648284912,,,165.61854993787423
1561309287891,,,,165.43927113253974
1561309287908,2.3271639347076416,7.4316020011901855,1.436521053314209,97.30850982206692
1561309287954,,,,96.50119512254975
1561309287984,0.2968810200691223,8.667010307312012,0.4405331015586853,111.85039920656342
1561309288025,,,,112.16743609726791
1561309288063,,8.916007041931152,,
1561309288064,0.3926490843296051,,1.5322890281677246,133.63291065848793
1561309288100,,,,133.05380623951922
1561309288121,0.5363011956214905,8.954314231872559,1.0055646896362305,118.99742719179471
1561309288179,,,,119.39934284331497
1561309288193,1.1492167711257935,10.620678901672363,3.5913026332855225,133.4941348749316
1561309288235,,,,133.5989782786913
1561309288259,-1.235408067703247,11.712434768676758,-0.6129156351089478,255.17371269436433
1561309288313,,,,257.99537312352334
1561309288332,,,,139.79341344075928
1561309288333,1.6280571222305298,11.195286750793457,5.9088897705078125,
1561309288385,,,,139.26563106321404
1561309288402,0.6703764796257019,8.169015884399414,0.45010992884635925,93.92143950322509
1561309288458,,,,95.2564682783958
1561309288475,,,,82.39483958066825
1561309288476,0.8906430602073669,7.661445617675781,0.3256114423274994,
1561309288514,,,,83.75164982910212
1561309288535,,8.47547435760498,,
1561309288536,0.8906430602073669,,1.1109095811843872,115.53185750882196
1561309288584,,,,115.93986568908184
1561309288604,0.6703764796257019,9.155426979064941,0.9768342971801758,119.1089505205627
1561309288654,,,,120.47470148662012
1561309288682,1.4939818382263184,10.975020408630371,1.2641384601593018,107.02251414268576
1561309288729,,,,109.21064037538022
1561309288743,,11.425130844116211,,
1561309288744,0.7852981686592102,,2.4420857429504395,139.90482748650052
1561309288798,,,,139.0765714269881
1561309288813,,10.793061256408691,2.2888567447662354,
1561309288814,1.599326729774475,,,123.82018278360573
1561309288865,,,,125.01726905829884
1561309288883,,8.829815864562988,2.011129379272461,157.64233698740338
1561309288884,-0.038307227194309235,,,
1561309288934,,,,158.36665122812656
1561309288953,,10.563218116760254,1.7142484188079834,192.827909875028
1561309288954,-1.37906014919281,,,
1561309289005,,,,193.27408515236993
1561309289027,,8.063671112060547,0.7182605266571045,160.4919602110244
1561309289028,-0.047884032130241394,,,
1561309289076,,,,161.16720637275023
1561309289094,-0.019153613597154617,9.59596061706543,1.3024457693099976,158.79829186291468
1561309289145,,,,157.9986133148896
1561309289163,,9.816226959228516,1.656787633895874,
1561309289164,1.2545616626739502,,,124.00134672115115
1561309289214,,,,123.43400388793319
1561309289233,,11.741165161132813,1.6280571222305298,176.757099492926
1561309289234,-0.6416460275650024,,,
1561309289284,,,,176.88808886082847
1561309289303,,12.076353073120117,,
1561309289304,1.7812861204147339,,1.1779472827911377,104.2033330721955
1561309289354,,,,104.39120425550587
1561309289375,,8.820239067077637,3.667917013168335,136.9933227489992
1561309289376,1.7621324062347412,,,
1561309289427,,,,137.8003779013279
1561309289443,,8.83939266204834,,
1561309289444,0.49799394607543945,,1.7142484188079834,143.5586235226205
1561309289497,,,,144.78972413938027
1561309289514,0.9385270476341248,7.603984832763672,-0.5650315880775452,40.01226585612102
1561309289566,,,,41.37469052005264
1561309289584,,8.5903959274292,0.07661445438861847,79.22895810790817
1561309289585,0.5363011956214905,,,
1561309289636,,,,80.42771094875877
1561309289655,0.9864110946655273,10.266336441040039,0.5363011956214905,102.19664398461327
1561309289709,,,,101.14989700374127
1561309289730,,11.779472351074219,1.1875240802764893,103.48653203955934
1561309289731,2.231395959854126,,,
1561309289785,,,,103.19527228278247
1561309289801,,11.405977249145508,,
1561309289802,2.537853717803955,,1.1300631761550903,100.10661292877853
1561309289845,,,,101.54218208853183
1561309289864,,11.808202743530273,,
1561309289865,-0.6607996821403503,,2.365471363067627,176.15816020460755
1561309289925,,,,178.60078611596586
1561309289934,1.1779472827911377,9.835380554199219,3.533841609954834,149.0685371260698
1561309289984,,,,148.68789068362497
1561309290004,1.599326729774475,8.446743965148926,2.030282974243164,130.62520953671614
1561309290057,,,,130.2101799219895
1561309290076,,7.4986395835876465,,92.0667972567565
1561309290077,2.7293899059295654,,0.38307225704193115,
1561309290128,,,,93.87685202832324
1561309290144,3.07415509223938,7.862558364868164,0.9768342971801758,103.70978360277036
1561309290200,,,,105.84640337893376
1561309290216,,10.160991668701172,,
1561309290217,1.50355863571167,,0.8619126081466675,111.09297220874402
1561309290272,,,,115.50435916722347
1561309290289,,10.697293281555176,,
1561309290292,1.2737152576446533,,1.455674648284912,133.56708129526734
1561309290341,,,,136.69175623676477
1561309290354,1.867477297782898,11.856086730957031,1.091755986213684,119.41936895796144
1561309290404,,,,122.84331546813215
1561309290436,,10.706870079040527,,
1561309290439,0.9289502501487732,,2.3271639347076416,158.45176904556325
1561309290478,,,,160.66716822361357
1561309290502,,,,151.44269722118787
1561309290503,3.706224203109741,8.59997272491455,5.631162166595459,
1561309290546,,,,155.01938042157843
1561309290585,2.250549554824829,7.6997528076171875,0.05746084079146385,104.47633573332092
1561309290625,,,,108.31706721683497
1561309290640,,,,97.62706984495628
1561309290641,,9.691728591918945,-0.20111294090747833,
1561309290642,1.6855180263519287,,,
1561309290690,,,,101.87354188592582
1561309290707,,9.117119789123535,,
1561309290708,2.298433542251587,,1.1492167711257935,135.05084426980423
1561309290754,,,,140.34012910268376
1561309290780,,9.030928611755371,,
1561309290781,1.9345149993896484,,-0.22026655077934265,108.83867510337049
1561309290828,,,,114.55949128801143
1561309290844,1.1875240802764893,10.132261276245117,-0.2106897532939911,108.5711161030136
1561309290903,,,,113.8811305600241
1561309290924,2.8155810832977295,9.797073364257813,0.9672574996948242,144.0732919369593
1561309290976,,,,148.74160329125795
1561309290996,,,,176.78791730646108
1561309290997,1.3215993642807007,11.30063247680664,1.6184803247451782,
1561309291045,,,,180.64669096203875
1561309291060,,9.318233489990234,1.4652514457702637,231.55826533715356
1561309291061,-0.40222588181495667,,,
1561309291104,,,,235.9749661828073
1561309291134,3.332728862762451,9.548076629638672,2.8826189041137695,175.76785587467634
1561309291183,,,,178.7959519413098
1561309291199,,10.247182846069336,0.019153613597154617,
1561309291200,0.19153612852096558,,,143.82300648501337
1561309291251,,,,147.9108064013743
1561309291267,0.3447650372982025,10.247182846069336,1.359906554222107,215.62758675852916
1561309291320,,,,219.75597165893828
1561309291341,,10.639832496643066,,
1561309291342,-1.015141487121582,,-0.181959331035614,335.1682001119948
1561309291384,,,,338.6344459836954
1561309291418,-0.12449848651885986,11.099518775939941,1.2737152576446533,242.31616844976043
1561309291455,,,,245.64112502829016
1561309291487,,11.808202743530273,,
1561309291490,0.7374141216278076,,2.5474305152893066,223.10437627688867
1561309291544,,,,227.57160686202212
1561309291545,,,,210.23537097485752
1561309291559,,10.27591323852539,,
1561309291561,2.2409727573394775,,3.332728862762451,
1561309291598,,,,214.43947535240545
1561309291615,,8.446743965148926,,
1561309291616,,,1.6184803247451782,
1561309291617,2.078166961669922,,,198.0392622494777
1561309291671,,,,202.27325553483365
1561309291688,1.4077905416488647,7.450755596160889,0.4596867263317108,183.77771797946434
1561309291763,0.6991068720817566,7.95832633972168,0.181959331035614,187.46517318781412
1561309291804,,,,187.22032456644752
1561309291830,1.4652514457702637,10.304644584655762,0.7661445140838623,199.56264032120066
1561309291887,,,,200.2164396889326
1561309291918,,11.473014831542969,1.1971008777618408,
1561309291919,1.8770540952682495,,,204.76858318582777
1561309291948,,,,205.8482038671749
1561309291964,1.656787633895874,12.009315490722656,2.38462495803833,227.07793444919196
1561309292020,,,,226.58495871565714
1561309292037,-0.047884032130241394,11.367670059204102,1.5897499322891235,263.0695069975475
1561309292086,,,,261.51273613097226
1561309292106,1.4269442558288574,6.780379295349121,1.5322890281677246,217.09417863749263
1561309292154,,,,216.68981777824956
1561309292187,,11.243170738220215,,
1561309292189,-0.8523358106613159,,1.5514427423477173,287.59687340141414
1561309292230,,,,287.1099355551056
1561309292246,,8.724471092224121,,
1561309292247,0.6416460275650024,,0.05746084079146385,176.73979179356917
1561309292300,,,,177.36946693315264
1561309292322,,,,201.83542674865748
1561309292324,,8.705317497253418,,
1561309292325,1.4077905416488647,,0.8331822156906128,
1561309292375,,,,201.2790668596249
1561309292384,0.7182605266571045,11.41555404663086,2.0685901641845703,239.7284010185394
1561309292435,,,,239.98641824462578
1561309292454,,11.530475616455078,,
1561309292456,0.6607996821403503,,1.436521053314209,235.2465811493388
1561309292508,,,,235.05992573970065
1561309292528,,,,232.895493433237
1561309292529,1.9153614044189453,10.113107681274414,4.194641590118408,
1561309292580,,,,232.70919319343568
1561309292597,0.8619126081466675,8.398859977722168,1.8579005002975464,233.7482288907347
1561309292654,,,,235.5778863052194
1561309292668,,6.540958881378174,0.8140285611152649,
1561309292669,2.0015525817871094,,,195.2126157822246
1561309292716,,,,196.0681925984171
1561309292743,0.8044517636299133,8.485051155090332,1.0630255937576294,225.8346624353312
1561309292801,,,,226.29411560041967
1561309292818,0.871489405632019,11.243170738220215,1.647210717201233,235.03235909621048
1561309292860,,,,236.55448041312616
1561309292888,1.8195933103561401,11.262324333190918,2.4803929328918457,227.41231319019914
1561309292926,,,,227.94438492654308
1561309292946,1.139639973640442,10.54406452178955,1.7908629179000854,232.2778940681061
1561309292996,,,,231.85509169810393
1561309293014,,9.892841339111328,2.049436569213867,
1561309293015,-0.8906430602073669,,,285.4567633985849
1561309293073,,,,283.85188067949616
1561309293091,0.8044517636299133,8.858546257019043,3.2752678394317627,245.57558253301477
1561309293142,,,,247.21434982057588
1561309293157,,7.929595947265625,,
1561309293162,0.047884032130241394,,0.4118026793003082,258.41353779507904
1561309293213,,,,256.8868880627436
1561309293230,0.12449848651885986,8.552088737487793,0.2106897532939911,233.36138063652356
1561309293283,,,,232.2805578418824
1561309293305,,10.065223693847656,,
1561309293307,1.0342950820922852,,1.742978811264038,230.84067200257368
1561309293346,,,,230.5465367361562
1561309293364,-0.24899697303771973,12.382811546325684,2.2697031497955322,266.58490974070463
1561309293416,,,,265.32715772580343
1561309293433,,10.132261276245117,,
1561309293434,1.455674648284912,,-0.15322890877723694,165.84189712373367
1561309293484,,,,165.16719737714146
1561309293504,0.6703764796257019,10.955866813659668,2.691082715988159,244.53115781646056
1561309293554,,,,244.2084723593125
1561309293581,1.359906554222107,8.580819129943848,2.75812029838562,232.2470489338143
1561309293628,,,,232.82015644669173
1561309293648,0.7182605266571045,6.904877662658691,-0.5171475410461426,136.520700979191
1561309293694,,,,135.93215723878933
1561309293714,1.5418659448623657,8.034940719604492,1.0342950820922852,203.70528665659685
1561309293764,,,,205.44682097040993
1561309293783,,13.503297805786133,,
1561309293784,1.6280571222305298,,3.533841609954834,235.43087331352405
1561309293834,,,,236.9186797600496
1561309293853,,11.377246856689453,,
1561309293854,1.647210717201233,,1.7525556087493896,219.46290190203138
1561309293904,,,,218.82993461126796
1561309293929,2.5953147411346436,8.5903959274292,1.3215993642807007,199.72495293663678
1561309293982,,,,197.16089992221407
1561309293999,-1.8291701078414917,10.936713218688965,2.5665841102600098,291.1172895034221
1561309294044,,,,289.41905175875763
1561309294063,,7.2783732414245605,,
1561309294065,2.1164743900299072,,2.7676970958709717,219.85700381714116
1561309294114,,,,219.10848338599942
1561309294133,,8.389283180236816,,
1561309294135,-1.1109095811843872,,-0.8236053586006165,25.83538348841728
1561309294185,,,,25.155940175446517
1561309294204,0.20111294090747833,8.379706382751465,1.091755986213684,245.53684853023162
1561309294267,,,,244.4092252793975
1561309294287,,,,233.601844276443
1561309294290,0.727837324142456,10.314221382141113,1.886630892753601,
1561309294333,,,,233.20009254946285
1561309294345,,11.779472351074219,,
1561309294346,0.7086837291717529,,1.6280571222305298,231.03093375209357
1561309294401,,,,229.02255760778633
1561309294417,1.1300631761550903,12.756306648254395,0.3734954595565796,181.65657541196015
1561309294486,1.599326729774475,9.174580574035645,2.8443117141723633,181.74825021100014
1561309294547,,,,223.64111986262492
1561309294563,,,,275.29575051754534
1561309294565,,8.456320762634277,,
1561309294566,-0.1628057211637497,,0.40222588181495667,
1561309294615,,,,274.65017469757413
1561309294641,,7.134721279144287,,
1561309294642,,,-1.6280571222305298,
1561309294643,0.4884171485900879,,,92.48597962649853
1561309294686,,,,92.84665459581026
1561309294696,1.2737152576446533,8.858546257019043,1.0055646896362305,201.28656640733357
1561309294754,,,,202.87326033266254
1561309294768,1.9249382019042969,10.697293281555176,1.37906014919281,200.25018082343252
1561309294838,,,,200.3202449039385
1561309294839,,11.080365180969238,1.9249382019042969,215.58514396302667
1561309294840,1.5418659448623657,,,
1561309294897,,,,215.50598207054622
1561309294903,,10.5344877243042,,
1561309294904,1.4460978507995605,,0.8044517636299133,193.9602322960111
1561309294965,,,,194.67681476259372
1561309294982,-0.7469909191131592,10.630255699157715,3.7636849880218506,262.98892442571963
1561309295036,,,,263.6299923208387
1561309295054,0.5363011956214905,7.862558364868164,1.37906014919281,233.68349235778135
1561309295104,,,,231.20130599075037
1561309295115,,8.130708694458008,1.37906014919281,244.28930081795045
1561309295116,0.19153612852096558,,,
1561309295187,,,,243.2835418022877
1561309295189,-0.009576806798577309,9.59596061706543,1.1013327836990356,251.95692582172012
1561309295260,,,,252.19441832935058
1561309295261,1.4077905416488647,9.84495735168457,0.9385270476341248,196.23554589346077
1561309295314,,,,196.03529840737428
1561309295329,,,,242.07970730069462
1561309295330,0.45010992884635925,12.574347496032715,2.911349296569824,
1561309295386,,,,240.2371408286786
1561309295410,,9.710882186889648,-0.5650315880775452,
1561309295411,1.7334020137786865,,,143.53150767161554
1561309295457,,,,144.03784325516693
1561309295474,,10.620678901672363,3.514688014984131,
1561309295475,0.5650315880775452,,,240.0346530405444
1561309295526,,,,239.3114452904668
1561309295536,0.7374141216278076,8.504204750061035,1.6855180263519287,225.5916169839055
1561309295607,,,,225.84520824740974
1561309295609,,6.540958881378174,,145.74372398151263
1561309295610,1.3886369466781616,,-0.3926490843296051,
1561309295678,0.7757213711738586,8.810662269592285,1.2641384601593018,148.79957793693302
1561309295734,,,,224.1368003510711
1561309295751,,10.515334129333496,1.1300631761550903,
1561309295752,2.0015525817871094,,,195.76357982181287
1561309295804,,,,195.66450109771267
1561309295824,,12.813767433166504,,
1561309295826,-0.06703764945268631,,2.5665841102600098,256.01431773589616
1561309295878,,,,256.8426762482461
1561309295897,0.9768342971801758,10.20887565612793,0.8140285611152649,206.50913395240036
1561309295953,,,,207.39403960088885
1561309295970,,10.802638053894043,,279.31527586296284
1561309295971,-1.2737152576446533,,2.8347349166870117,
1561309296026,-0.06703764945268631,8.944737434387207,1.8291701078414917,281.27464539997527
1561309296085,,,,259.433168924946
1561309296106,,8.667010307312012,0.5267243981361389,305.0360095035196
1561309296107,-0.5650315880775452,,,
1561309296167,0.17238251864910126,9.040505409240723,1.3503297567367554,302.58988312021165
1561309296238,1.9536685943603516,9.959878921508789,2.0398597717285156,246.52900180906767
1561309296309,,,,210.05262243342463
1561309296311,0.06703764945268631,12.804190635681152,2.5761611461639404,251.2807166033213
1561309296378,,,,252.9807506877375
1561309296380,,,,211.6887259472095
1561309296381,1.5514427423477173,10.342951774597168,1.6280571222305298,
1561309296447,1.6759412288665771,8.65743350982666,1.9919757843017578,213.42845709108178
1561309296525,0.7852981686592102,8.810662269592285,2.097320795059204,218.04136195083333
1561309296581,,,,236.59625385008997
1561309296589,,7.249642848968506,-0.507570743560791,
1561309296590,1.359906554222107,,,147.78002193914688
1561309296644,,,,149.7864856304865
1561309296654,0.8427590131759644,9.184157371520996,0.6320692300796509,206.6048658838073
1561309296720,,,,209.89656627126823
1561309296740,,10.381258964538574,1.9153614044189453,
1561309296741,2.671929121017456,,,208.9163248423447
1561309296800,,,,210.14067723220444
1561309296801,1.6089035272598267,12.057199478149414,1.1300631761550903,
1561309296868,3.093308687210083,10.017339706420898,2.8634653091430664,211.84159924121275
1561309296928,,,,222.04349763462392
1561309296944,,10.467450141906738,0.181959331035614,
1561309296945,-0.43095630407333374,,,334.849503485322
1561309297009,0.9672574996948242,9.998186111450195,1.0630255937576294,336.6133998384778
1561309297078,,,,229.58121244038
1561309297079,0.6033388376235962,9.069235801696777,0.05746084079146385,187.07301104642875
1561309297136,,,,189.42901649873295
1561309297154,,8.916007041931152,2.451662540435791,241.70279014153664
1561309297155,1.656787633895874,,,
1561309297208,,,,243.83594018160164
1561309297227,,,,213.21031450936994
1561309297229,2.049436569213867,7.795520782470703,0.9959878921508789,
1561309297280,,,,218.756496417312
1561309297294,,8.916007041931152,,
1561309297298,0.9481038451194763,,1.2449848651885986,244.62206763431345
1561309297353,,,,251.94298540562409
1561309297355,,10.342951774597168,0.6991068720817566,
1561309297385,0.8331822156906128,,,238.47011624888296
1561309297424,,,,243.59801737205345
1561309297426,,,,277.06934573932256
1561309297427,0.4213795065879822,11.836933135986328,1.4077905416488647,
1561309297485,,,,284.51503057620187
1561309297501,,11.865663528442383,,
1561309297502,-1.091755986213684,,1.9632453918457031,329.61431545821625
1561309297557,,,,357.2272089340222
1561309297574,,6.809109687805176,,285.13687148880734
1561309297575,4.836287498474121,,3.1028854846954346,
1561309297631,,,,299.72879883916335
1561309297634,3.552995204925537,8.33182144165039,1.9728221893310547,293.44804374636476
1561309297706,2.0685901641845703,9.442731857299805,1.3886369466781616,302.5023200950521
1561309297765,,,,308.3975007639197
1561309297781,,,,274.8019619914993
1561309297782,2.3942017555236816,8.111555099487305,-0.12449848651885986,
1561309297849,,,,277.8191570762174
1561309297850,,,,304.91605772131584
1561309297851,1.2832920551300049,9.050082206726074,0.689530074596405,
1561309297918,1.800439715385437,8.494627952575684,0.07661445438861847,310.9926447994444
1561309297980,,,,294.74447512253573
1561309298000,0.8906430602073669,9.720458984375,-1.3311761617660522,235.34787285473004
1561309298049,,,,241.78995701572433
1561309298065,,,,298.2916314151443
1561309298066,1.9728221893310547,10.065223693847656,0.009576806798577309,
1561309298115,,,,302.888232613347
1561309298129,,10.888829231262207,,320.7118639694946
1561309298130,2.3080103397369385,,0.7948749661445618,
1561309298195,,13.148955345153809,-0.15322890877723694,327.35871037161667
1561309298196,0.727837324142456,,,
1561309298255,,,,299.8611883958457
1561309298270,,9.097966194152832,,7.869081433339204
1561309298271,3.428496837615967,,5.70777702331543,
1561309298341,,,,16.051765879777633
1561309298342,,9.41400146484375,,358.537025453254
1561309298343,2.4420857429504395,,1.9153614044189453,
1561309298395,,,,7.408164046447439
1561309298409,,,,26.735044053060335
1561309298410,1.015141487121582,10.553641319274902,1.6855180263519287,
1561309298468,,,,39.23217629063555
1561309298491,1.3886369466781616,7.872135162353516,0.7661445140838623,11.480484192828214
1561309298546,0.363918662071228,8.513781547546387,0.7757213711738586,20.21633882995684
1561309298605,,,,57.944456238936766
1561309298617,0.20111294090747833,10.333374977111816,0.7948749661445618,69.04917586702942
1561309298685,0.20111294090747833,10.735600471496582,-0.6799532771110535,67.82855959064563
1561309298753,,,,278.3886104378889
1561309298754,0.7469909191131592,11.798625946044922,0.7565677165985107,35.18349969784043
1561309298821,,,,34.447608286474065
1561309298837,,12.679692268371582,1.522712230682373,
1561309298838,1.5514427423477173,,,33.113344492490455
1561309298892,,,,32.39574091262682
1561309298909,6.167463779449463,8.283937454223633,2.8443117141723633,14.383637316521913
1561309298954,,,,15.492725141495896
1561309298964,,8.504204750061035,,
1561309298965,2.6431987285614014,,0.363918662071228,357.8662444209764
1561309299034,,,,358.55835634747535
1561309299035,,,,23.602008960018793
1561309299036,2.31758713722229,7.795520782470703,1.5418659448623657,
1561309299109,,,,25.081304990838476
1561309299110,1.867477297782898,7.939172744750977,-0.15322890877723694,
1561309299168,,,,351.3099708095603
1561309299187,2.63362193107605,8.973467826843262,1.3215993642807007,21.87282021313041
1561309299238,,,,24.67048960282972
1561309299256,,10.831368446350098,1.0247182846069336,
1561309299257,2.1739351749420166,,,23.24416851921262
1561309299310,,,,25.63309889841088
1561309299339,,,,58.79160460169345
1561309299340,1.436521053314209,12.325350761413574,2.4420857429504395,
1561309299380,,,,60.934474000947375
1561309299411,2.0877439975738525,11.109095573425293,0.40222588181495667,13.592038882284953
1561309299464,-0.12449848651885986,10.285490036010742,3.1699230670928955,13.998469288846536
1561309299517,,,,91.80062478480113
1561309299533,1.2449848651885986,8.65743350982666,2.2026655673980713,61.69776813126384
1561309299596,,7.910442352294922,,62.98258135565658
1561309299597,-0.09576806426048279,,-0.689530074596405,
1561309299675,,,,267.0168304132487
1561309299676,1.9919757843017578,7.805097579956055,1.7908629179000854,45.96483377439506
1561309299728,,,,46.83249319522929
1561309299746,,9.883264541625977,,
1561309299747,0.2298433631658554,,-0.6607996821403503,294.3620664912851
1561309299797,,,,294.26620478628394
1561309299820,,12.181697845458984,,90.14187236372851
1561309299821,0.1149216815829277,,2.097320795059204,
1561309299874,,,,90.8121324873602
1561309299875,1.2545616626739502,10.754754066467285,-0.7852981686592102,
1561309299942,,,,335.1701074423205
1561309299963,1.9632453918457031,7.8529815673828125,1.1779472827911377,37.39252630939512
1561309300015,0.7565677165985107,9.251194953918457,1.522712230682373,39.447812192922015
1561309300081,,,,73.4935594693892
1561309300092,,7.872135162353516,,
1561309300093,1.2641384601593018,,0.038307227194309235,12.548294623326854
1561309300145,,,,15.087741027491006
1561309300165,,8.992621421813965,,
1561309300166,1.2545616626739502,,0.7757213711738586,44.84042754266005
1561309300227,,,,46.81317742025652
1561309300228,1.4652514457702637,10.333374977111816,0.5650315880775452,36.24997568012998
1561309300284,,,,36.65944210577766
1561309300297,,11.693281173706055,2.5761611461639404,73.0936177425391
1561309300298,1.6089035272598267,,,
1561309300363,,,,73.47112912815487
1561309300382,,,,33.045305563073384
1561309300383,2.365471363067627,10.467450141906738,0.7182605266571045,
1561309300434,,,,33.138114173515476
1561309300435,-2.6144683361053467,12.861651420593262,3.4763808250427246,
1561309300498,,,,140.3647041233175
1561309300520,0.871489405632019,7.01979923248291,1.723825216293335,78.43111005058063
1561309300572,,,,76.94300990592075
1561309300574,,,,222.7204923247773
1561309300575,-1.091755986213684,8.810662269592285,-0.6033388376235962,
1561309300652,,,,220.4775538239935
1561309300654,,,,96.28056635197999
1561309300655,0.08619125932455063,9.366117477416992,0.9959878921508789,
1561309300734,,,,93.67745831588309
1561309300735,0.8140285611152649,9.126696586608887,0.9385270476341248,57.92516778472066
1561309300797,0.8331822156906128,11.061211585998535,1.2641384601593018,55.62192212866023
1561309300848,,,,62.83552738282623
1561309300853,,11.109095573425293,,
1561309300854,1.1492167711257935,,-0.689530074596405,335.60819406813783
1561309300914,,,,335.65502355263476
1561309300930,,11.501745223999023,,
1561309300931,1.7142484188079834,,5.1331682205200195,77.10194840790695
1561309300984,,,,76.16934071825506
1561309300995,,8.274360656738281,0.545877993106842,20.131497635181518
1561309300996,2.164358377456665,,,
1561309301054,,,,21.40823586842805
1561309301063,,9.193734169006348,,
1561309301064,0.9002198576927185,,0.8523358106613159,50.21160634368806
1561309301132,,,,50.8239293876851
1561309301140,,7.920019149780273,,
1561309301141,,,0.7182605266571045,37.15280032990603
1561309301198,,,,37.96373161458871
1561309301203,,8.523358345031738,,
1561309301204,1.5705963373184204,,0.7469909191131592,33.87141011299724
1561309301277,1.7621324062347412,10.448296546936035,0.9097966551780701,35.324799236295064
1561309301334,,,,37.21601714576906
1561309301351,1.7717092037200928,11.310209274291992,1.6759412288665771,52.89139349850211
1561309301404,,,,52.80876186992333
1561309301418,,11.568782806396484,,
1561309301419,0.9385270476341248,,0.6320692300796509,43.90471553203042
1561309301487,-0.7374141216278076,12.15296745300293,3.246537446975708,43.992626896837635
1561309301566,-0.6512228846549988,9.433155059814453,1.3982137441635132,108.33693623713054
1561309301618,,,,118.53891659281177
1561309301627,,8.437167167663574,0.4405331015586853,
1561309301628,,,,120.13442146217005
1561309301629,-0.2106897532939911,,,
1561309301686,,,,119.06743663078737
1561309301703,-0.13407529890537262,8.02536392211914,0.727837324142456,103.6221795964758
1561309301764,,,,101.2209309711094
1561309301765,0.9002198576927185,8.322244644165039,0.7852981686592102,42.174840351130456
1561309301840,,11.808202743530273,,38.26076288121419
1561309301841,0.4596867263317108,,1.1971008777618408,
1561309301902,,,,63.12714230943993
1561309301904,-0.5650315880775452,12.823344230651855,0.9576807022094727,114.6274448400639
1561309301965,,,,114.3392176872785
1561309301986,2.279279947280884,10.639832496643066,1.235408067703247,22.791513099895667
1561309302034,,,,22.68514827149835
1561309302043,,10.869675636291504,,
1561309302052,0.5841852426528931,,3.4955344200134277,72.31927919633478
1561309302104,,,,71.5534578960254
1561309302115,2.2026655673980713,7.096413612365723,0.8044517636299133,14.17652805164056
1561309302182,,,,15.182936789048085
1561309302184,2.011129379272461,8.006210327148438,0.9768342971801758,20.79347956953916
1561309302248,,,,22.815761978996534
1561309302255,1.072602391242981,9.059659004211426,0.4213795065879822,18.73972023329179
1561309302323,,,,21.496273591734905
1561309302326,2.7006595134735107,8.695740699768066,1.235408067703247,24.21773514576978
1561309302385,,,,24.235147005511465
1561309302393,,10.869675636291504,,
1561309302395,1.647210717201233,,0.871489405632019,27.65474268518085
1561309302458,,,,27.551495838139658
1561309302468,,11.281478881835938,2.6815059185028076,51.39098193786333
1561309302469,1.9919757843017578,,,
1561309302534,-0.4118026793003082,12.181697845458984,0.7374141216278076,50.57226423752684
1561309302604,1.1875240802764893,8.20732307434082,3.07415509223938,115.27060277306896
1561309302684,,10.113107681274414,,
1561309302686,-0.38307225704193115,,2.5761611461639404,91.35167645065621
1561309302745,-1.015141487121582,8.858546257019043,-0.5746083855628967,207.07930448393472
1561309302815,,8.829815864562988,,
1561309302816,0.09576806426048279,,0.6224924325942993,76.02636436835917
1561309302887,1.1013327836990356,10.093954086303711,1.235408067703247,45.5605343868545
1561309302967,,11.961431503295898,,
1561309302968,0.12449848651885986,,1.9345149993896484,83.19116450581089
1561309303024,0.047884032130241394,10.8505220413208,-1.1875240802764893,271.95548748508565
1561309303047,,,,272.12119470453933
1561309303101,0.9576807022094727,11.453861236572266,2.231395959854126,63.02680683053245
1561309303164,,9.059659004211426,2.1164743900299072,
1561309303165,1.944091796875,,,44.33277714769349
1561309303194,,,,45.703596114115044
1561309303246,,7.316680431365967,,
1561309303247,2.049436569213867,,0.43095630407333374,12.001028277400508
1561309303305,0.9002198576927185,7.948749542236328,0.35434186458587646,22.188332264102712
1561309303321,,,,22.426702451041535
1561309303376,,8.992621421813965,0.28730419278144836,
1561309303377,,,,14.584658321531833
1561309303382,1.2066776752471924,,,16.069567060302006
1561309303450,1.800439715385437,11.080365180969238,0.6129156351089478,21.105151346650587
1561309303520,2.2409727573394775,11.204863548278809,3.2082302570343018,55.264880819986956
1561309303600,,11.348516464233398,,
1561309303601,-0.9959878921508789,,-0.8140285611152649,228.08372078561138
1561309303653,,8.858546257019043,,
1561309303654,1.455674648284912,,2.652775526046753,62.00179351159943
1561309303655,,,,57.45776427943832
1561309303732,,10.505757331848145,,
1561309303734,0.23942017555236816,,3.485957622528076,80.07414620637303
1561309303797,0.24899697303771973,8.513781547546387,0.38307225704193115,53.873718135122544
1561309303867,0.31603461503982544,8.992621421813965,0.05746084079146385,7.490796528799933
1561309303933,,9.126696586608887,1.1204863786697388,
1561309303934,1.886630892753601,,,27.381072373064114
1561309303935,,,,26.264403038111425
1561309304004,,12.114660263061523,,
1561309304005,0.4213795065879822,,1.5897499322891235,69.6371663621083
1561309304078,,10.27591323852539,,
1561309304079,2.1547815799713135,,1.944091796875,35.094929219778294
1561309304150,,9.040505409240723,,
1561309304151,2.1068975925445557,,1.7908629179000854,32.317835774953664
1561309304233,1.3024457693099976,8.063671112060547,1.7908629179000854,43.597865868473036
1561309304302,,7.565677165985107,,
1561309304303,1.2449848651885986,,-0.14365209639072418,350.97732181396043
1561309304375,,9.011775016784668,,
1561309304376,1.9057846069335938,,1.8100165128707886,39.091737356016324
1561309304444,,8.312667846679688,,
1561309304445,3.160346269607544,,1.015141487121582,15.585754025538733
1561309304504,2.3558945655822754,12.181697845458984,1.0342950820922852,20.88132263245467
1561309304505,,,,23.465878167218534
1561309304583,,11.463438034057617,,
1561309304584,2.920926094055176,,1.3407529592514038,23.95947374042055
1561309304659,,12.7946138381958,1.4077905416488647,147.06174558565002
1561309304660,-1.6663644313812256,,,
1561309304714,4.242525577545166,7.920019149780273,4.424484729766846,56.854566368172414
1561309304716,,,,63.22701333548383
1561309304796,,9.500192642211914,,
1561309304797,0.49799394607543945,,1.7621324062347412,95.457631009831
1561309304855,0.8619126081466675,7.469909191131592,-0.6320692300796509,355.8286173512183
1561309304924,,8.580819129943848,0.6703764796257019,
1561309304925,0.33518823981285095,,,103.19659733948146
1561309304949,,,,116.26608918422
1561309304994,,7.65186882019043,0.7565677165985107,
1561309304995,1.1875240802764893,,,85.04105294061713
1561309305075,,8.772355079650879,-0.9385270476341248,357.59246439894605
1561309305076,0.4596867263317108,,,5.912502455489573
1561309305135,,10.888829231262207,,
1561309305137,1.216254472732544,,1.0342950820922852,110.99605865461072
1561309305207,2.1547815799713135,11.27190113067627,1.5131354331970215,117.73518091241971
1561309305275,,11.386823654174805,,
1561309305276,1.7142484188079834,,1.1683704853057861,130.55450341842817
1561309305365,,8.772355079650879,,
1561309305367,,,3.840299606323242,
1561309305368,4.299986362457275,,,144.68322782984146
1561309305414,,10.47702693939209,-0.038307227194309235,
1561309305415,0.20111294090747833,,,100.75987954175525
1561309305416,,,,111.74095225530314
1561309305498,3.045424461364746,6.828263282775879,2.0207061767578125,156.6319471034834
1561309305553,,8.389283180236816,,
1561309305554,1.436521053314209,,0.12449848651885986,137.99999701001067
1561309305555,,,,144.66996360247327
1561309305637,,10.448296546936035,-0.6416460275650024,
1561309305638,1.0055646896362305,,,107.69179071907698
1561309305725,,11.769895553588867,,
1561309305727,,,0.5650315880775452,
1561309305728,0.8810662031173706,,,176.04338570579466
1561309305795,,11.070788383483887,,
1561309305796,1.4939818382263184,,0.019153613597154617,150.87017710457908
1561309305852,,10.362105369567871,3.428496837615967,223.05222095238645
1561309305853,0.9672574996948242,,,
1561309305911,,9.77791976928711,,
1561309305912,2.557007312774658,,1.3503297567367554,182.63737691639574
1561309305987,,8.734047889709473,,
1561309305989,,,0.26815059781074524,170.22870906157942
1561309305990,1.2737152576446533,,,
1561309306047,0.5363011956214905,9.002198219299316,1.1109095811843872,223.39546527893629
1561309306120,1.2832920551300049,9.040505409240723,0.7661445140838623,196.91898828219053
1561309306183,,12.29662036895752,,
1561309306184,-0.4405331015586853,,1.455674648284912,276.7034251847283
1561309306185,,,,279.8747776390136
1561309306253,,11.520898818969727,,
1561309306254,1.5514427423477173,,1.7717092037200928,222.34205886362355
1561309306255,,,,224.11027189633478
1561309306330,,12.574347496032715,,
1561309306332,0.6799532771110535,,3.840299606323242,254.05537850080145
1561309306405,,6.933608055114746,,
1561309306406,4.022258758544922,,1.4269442558288574,197.30218921538494
1561309306487,0.9097966551780701,8.9064302444458,0.8523358106613159,220.80802569679537
1561309306537,,8.255207061767578,1.0534487962722778,226.30758473346293
1561309306538,0.9864110946655273,,,
1561309306622,0.7948749661445618,8.121131896972656,0.3256114423274994,203.7749545861309
1561309306682,,9.337387084960938,,
1561309306683,2.097320795059204,,0.9768342971801758,208.83008687388406
1561309306761,1.9632453918457031,11.645397186279297,1.7334020137786865,226.59001305564294
1561309306820,1.9057846069335938,12.210428237915039,2.030282974243164,233.62303152324841
1561309306883,,10.285490036010742,,
1561309306884,,,3.064578056335449,282.2666825655954
1561309306885,-0.5363011956214905,,,279.845223410475
1561309306954,,8.580819129943848,,
1561309306955,,,2.3271639347076416,
1561309306956,1.0342950820922852,,,247.39808190924924
1561309307024,-1.1300631761550903,10.199298858642578,0.10534487664699554,355.5442069935185
1561309307045,,,,354.91156114853294
1561309307098,,7.785943984985352,,
1561309307099,-0.12449848651885986,,0.5267243981361389,283.25476505168615
1561309307165,0.49799394607543945,7.95832633972168,0.6607996821403503,232.34899633736592
1561309307233,,12.143390655517578,,
1561309307234,,,1.9632453918457031,252.35437452952317
1561309307235,0.5650315880775452,,,249.28027713882966
1561309307304,0.6129156351089478,12.507309913635254,0.3926490843296051,208.2047420742344
1561309307305,,,,207.35762103223442
1561309307376,1.6855180263519287,12.354081153869629,3.533841609954834,239.75927347358788
1561309307455,,7.1251444816589355,1.1300631761550903,
1561309307456,2.183511972427368,,,202.6764552619178
1561309307513,,7.364564418792725,,
1561309307514,1.235408067703247,,-0.038307227194309235,171.23710453026175
1561309307515,,,,172.91039159388816
1561309307584,1.216254472732544,9.77791976928711,1.7908629179000854,230.9144380456098
1561309307585,,,,232.71364647677456
1561309307666,,10.237606048583984,,
1561309307668,1.2066776752471924,,1.3982137441635132,225.98649754058061
1561309307729,,9.96945571899414,1.800439715385437,
1561309307730,2.183511972427368,,,220.00632541277594
1561309307797,1.8770540952682495,11.48259162902832,3.7445313930511475,246.75183673073934
1561309307864,-2.250549554824829,12.78503704071045,2.212242364883423,318.84188794833926
1561309307865,,,,317.94152216666447
1561309307934,1.9919757843017578,7.249642848968506,2.2409727573394775,233.66040631838672
1561309307935,,,,235.37803497010486
1561309308020,-0.6799532771110535,9.653421401977539,1.599326729774475,297.5104353590133
1561309308078,,7.422025203704834,,
1561309308079,-0.06703764945268631,,-0.09576806426048279,59.24359920020822
1561309308152,,7.718906402587891,,
1561309308153,0.689530074596405,,0.6799532771110535,228.72470671846042
1561309308213,,12.133813858032227,,
1561309308214,0.3256114423274994,,1.7142484188079834,262.3033236972121
1561309308215,,,,261.7279895426652
1561309308287,,11.894393920898438,,
1561309308288,0.33518823981285095,,1.6376339197158813,260.90871518191136
1561309308371,,10.582371711730957,,
1561309308372,0.727837324142456,,-0.08619125932455063,173.7215175389622
1561309308430,,9.222464561462402,2.7964274883270264,
1561309308431,2.3271639347076416,,,232.8215361449041
1561309308508,1.1971008777618408,9.375694274902344,1.0630255937576294,221.79828018304215
1561309308573,1.139639973640442,6.971915245056152,-0.13407529890537262,172.7840604149996
1561309308639,1.3886369466781616,8.226476669311523,1.158793568611145,222.45287185271786
1561309308703,,10.256759643554688,,
1561309308704,1.8962076902389526,,0.9193734526634216,208.49927349162368
1561309308705,,,,209.90712574372503
1561309308783,,11.702857971191406,,
1561309308784,1.599326729774475,,2.1068975925445557,237.4015877947478
1561309308850,,11.348516464233398,,
1561309308852,1.6376339197158813,,1.7525556087493896,232.84661659953633
1561309308917,-0.15322890877723694,11.568782806396484,3.821146011352539,278.922253117742
1561309308918,,,,279.4923826681413
1561309308992,1.2641384601593018,7.987056732177734,1.7812861204147339,242.7569342172797
1561309309053,,9.078812599182129,,
1561309309054,-1.091755986213684,,0.09576806426048279,359.91812867019337
1561309309055,,,,358.74968189895844
1561309309129,,7.910442352294922,,
1561309309130,-0.17238251864910126,,0.9097966551780701,285.1187646573176
1561309309197,,8.954314231872559,0.5267243981361389,216.12737902085564
1561309309280,0.45010992884635925,11.903970718383789,0.9481038451194763,245.38110655677696
1561309309344,,11.587936401367188,0.2106897532939911,328.11497282218255
1561309309345,-0.3447650372982025,,,
1561309309405,,11.932701110839844,,
1561309309409,1.2258312702178955,,0.9002198576927185,216.53336546512122
1561309309476,,7.230489253997803,1.4748282432556152,205.50183131398524
1561309309477,3.246537446975708,,,202.43413381054404
1561309309546,,8.360552787780762,1.455674648284912,209.18689595612557
1561309309547,2.31758713722229,,,208.93962944779275
1561309309622,,8.33182144165039,-0.2968810200691223,
1561309309623,0.4884171485900879,,,143.87021675255647
1561309309687,1.8195933103561401,8.26478385925293,0.49799394607543945,191.66612201796556
1561309309754,1.8291701078414917,10.84094524383545,1.5131354331970215,217.38265850727726
1561309309757,,,,217.86672767413444
1561309309830,2.5282769203186035,11.128249168395996,3.0550012588500977,229.8109526833025
1561309309903,0.49799394607543945,11.72201156616211,0.6607996821403503,232.0761302800239
1561309309971,,8.935160636901855,,
1561309309972,,,1.7621324062347412,
1561309309973,0.181959331035614,,,264.6987803221623
1561309310034,,8.561665534973145,,
1561309310035,,,1.4269442558288574,
1561309310036,0.8619126081466675,,,239.46076688610162
1561309310121,-0.507570743560791,8.571242332458496,-0.31603461503982544,31.32523170363237
1561309310194,,8.47547435760498,1.0534487962722778,
1561309310195,0.7374141216278076,,,233.86266188008915
1561309310252,,9.327810287475586,,
1561309310253,1.4939818382263184,,0.6799532771110535,202.01217838399907
1561309310325,,12.401965141296387,1.9536685943603516,
1561309310326,0.49799394607543945,,,253.78072293389687
1561309310387,,12.047622680664063,,
1561309310388,0.15322890877723694,,0.14365209639072418,220.1176984773822
1561309310462,,8.762778282165527,2.049436569213867,
1561309310463,2.3942017555236816,,,219.01740964360647
1561309310534,0.38307225704193115,9.002198219299316,0.689530074596405,237.46704832775322
1561309310610,1.3215993642807007,7.115567684173584,-0.15322890877723694,168.85567711386676
1561309310673,0.8619126081466675,8.724471092224121,0.871489405632019,223.10723129596175
1561309310734,,8.619126319885254,,
1561309310735,1.8579005002975464,,0.4118026793003082,192.27063474064664
1561309310804,,11.942277908325195,,
1561309310805,0.9672574996948242,,1.4844050407409668,237.67572426727543
1561309310841,,,,237.95838481588726
1561309310875,,10.505757331848145,2.1930887699127197,
1561309310877,3.1316158771514893,,,217.75778615687273
1561309310954,,13.292608261108398,,
1561309310955,-1.7046716213226318,,0.689530074596405,340.04272683016717
1561309311019,,6.560112476348877,,
1561309311020,2.2601263523101807,,3.160346269607544,242.10294360425098
1561309311086,-1.3024457693099976,9.21288776397705,-0.689530074596405,30.65748508961525
1561309311154,,8.743624687194824,,
1561309311157,,,0.9481038451194763,
1561309311158,,,,272.83941641652285
1561309311159,0.019153613597154617,,,
1561309311231,,9.155426979064941,,
1561309311232,1.0055646896362305,,1.3120225667953491,236.28979692240983
1561309311301,1.1300631761550903,10.036493301391602,0.7948749661445618,216.17894694908927
1561309311365,-0.43095630407333374,13.005303382873535,2.0398597717285156,283.15089153478857
1561309311443,0.4213795065879822,11.549629211425781,4.290409564971924,266.725133524365
1561309311504,2.38462495803833,7.51779317855835,-0.43095630407333374,166.72989001772703
1561309311505,,,,167.64801770633846
1561309311587,2.1356279850006104,7.594407558441162,0.5746083855628967,195.37837081300245
1561309311644,0.9289502501487732,8.504204750061035,-0.15322890877723694,170.59936976745766
1561309311647,,,,172.84073732473237
1561309311714,1.9632453918457031,8.360552787780762,0.727837324142456,204.28947273630797
1561309311715,,,,205.63926838046427
1561309311791,2.1068975925445557,9.423578262329102,0.3447650372982025,193.68631438953685
1561309311863,,12.42111873626709,,
1561309311867,2.8634653091430664,,1.359906554222107,213.12473223906966
1561309311939,,11.674127578735352,,
1561309311940,2.9017724990844727,,2.6815059185028076,237.44426281668206
1561309311993,,12.085929870605469,,
1561309311994,-0.2968810200691223,,1.1204863786697388,298.8517683987879
1561309311995,,,,300.3554891860795
1561309312063,,9.193734169006348,,
1561309312071,0.7182605266571045,,2.671929121017456,273.81305988270816
1561309312156,,8.197746276855469,,
1561309312159,,,1.0534487962722778,233.408604564445
1561309312160,1.6376339197158813,,,
1561309312226,,9.47146224975586,,
1561309312227,-0.24899697303771973,,0.7757213711738586,307.1270685028244
1561309312280,2.3080103397369385,6.847416877746582,1.3120225667953491,236.5059587492624
1561309312345,,7.929595947265625,,
1561309312346,2.3080103397369385,,-0.28730419278144836,198.35843698939243
1561309312428,-0.49799394607543945,9.433155059814453,-0.12449848651885986,40.541608931891574
1561309312504,,10.036493301391602,-0.38307225704193115,194.3469029653038
1561309312505,1.235408067703247,,,
1561309312559,-0.6416460275650024,12.306197166442871,-0.33518823981285095,61.99928000198486
1561309312624,1.580173134803772,10.60152530670166,-0.7374141216278076,197.9634061685556
1561309312637,,,,199.48776778751903
1561309312704,2.38462495803833,9.337387084960938,-1.599326729774475,190.93900739968262
1561309312785,3.7636849880218506,9.672574996948242,2.2601263523101807,270.36205216304586
1561309312833,2.3367409706115723,9.586383819580078,2.183511972427368,282.5461534158648
1561309312835,,,,286.5622158553731
1561309312905,,9.289502143859863,,
1561309312906,1.656787633895874,,1.6184803247451782,285.489671250006
1561309312988,0.6512228846549988,8.437167167663574,-1.1300631761550903,182.9703076572988
1561309313049,1.0438719987869263,9.653421401977539,-0.4596867263317108,234.39220644644024
1561309313130,2.3367409706115723,10.65898609161377,-0.33518823981285095,272.251186864823
1561309313200,,11.463438034057617,0.31603461503982544,
1561309313201,1.8483237028121948,,,298.47125856012644
1561309313253,,13.10107135772705,,
1561309313255,-1.1300631761550903,,4.175487995147705,27.977802095186007
1561309313340,,10.515334129333496,1.2449848651885986,
1561309313341,0.8044517636299133,,,6.317614208654561
1561309313396,,9.653421401977539,2.738966703414917,
1561309313397,2.3750481605529785,,,10.486252828937154
1561309313467,-0.5171475410461426,8.925583839416504,-0.7948749661445618,217.5036621386132
1561309313543,0.4692635238170624,8.676587104797363,1.292868971824646,50.756675930022595
1561309313603,,9.749189376831055,,
1561309313604,0.07661445438861847,,0.06703764945268631,37.78981792284725
1561309313605,,,,41.89826208597458
1561309313690,0.26815059781074524,12.085929870605469,0.17238251864910126,33.15760411831212
1561309313763,,13.637372970581055,2.030282974243164,
1561309313764,1.3886369466781616,,,54.4266868352322
1561309313816,2.2409727573394775,10.333374977111816,3.4093432426452637,51.504943644164996
1561309313894,,8.255207061767578,,
1561309313896,3.687070608139038,,2.5761611461639404,32.51786127989203
1561309313954,0.07661445438861847,9.528923034667969,-0.4692635238170624,287.1248526882529
1561309313956,,,,285.37766297780695
1561309314029,0.6799532771110535,8.073247909545898,0.9959878921508789,56.848719726242905
1561309314095,,7.785943984985352,0.009576806798577309,
1561309314099,1.1300631761550903,,,5.385711736034466
1561309314181,,9.605537414550781,0.6607996821403503,21.882681298744615
1561309314182,2.183511972427368,,,
1561309314233,,12.210428237915039,,
1561309314234,2.1164743900299072,,0.6416460275650024,25.6923832328593
1561309314235,,,,27.022301318983523
1561309314334,,13.924676895141602,,
1561309314335,0.12449848651885986,,1.455674648284912,94.35155700582834
1561309314391,0.6224924325942993,9.08838939666748,1.8195933103561401,79.05034183092312
1561309314450,0.4596867263317108,9.14585018157959,3.4763808250427246,86.80116536897276
1561309314521,,7.690176010131836,,
1561309314522,,,0.15322890877723694,126.68622578199142
1561309314523,-0.07661445438861847,,,
1561309314584,-0.13407529890537262,7.709329605102539,0.6033388376235962,111.97914827241817
1561309314588,,,,112.02120174713792
1561309314660,,9.27034854888916,0.5841852426528931,31.067071043573378
1561309314661,1.4939818382263184,,,
1561309314740,,12.344504356384277,0.6224924325942993,81.50824004526555
1561309314741,0.22026655077934265,,,78.14209742604066
1561309314798,,11.310209274291992,,
1561309314799,1.235408067703247,,1.6280571222305298,59.771962143832866
1561309314880,1.5514427423477173,12.60307788848877,2.1547815799713135,59.83533263895225
1561309314937,2.011129379272461,6.8378400802612305,-1.3503297567367554,330.4054357792113
1561309315004,1.4173674583435059,8.667010307312012,0.5171475410461426,24.522800422406533
1561309315006,,,,26.763476423027782
1561309315080,1.522712230682373,8.513781547546387,0.7086837291717529,31.69745652283052
1561309315163,1.50355863571167,9.011775016784668,0.6799532771110535,33.61995328360865
1561309315216,2.6815059185028076,10.007762908935547,1.6663644313812256,44.649339340250606
1561309315285,1.37906014919281,11.578359603881836,1.2737152576446533,53.082153851831436
1561309315374,0.8810662031173706,10.975020408630371,0.2106897532939911,24.721681870658983
1561309315424,,10.189722061157227,,
1561309315425,-0.5937620401382446,,2.0015525817871094,118.57092285926245
1561309315427,,,,120.8864662709235
1561309315516,,8.437167167663574,,
1561309315517,0.1628057211637497,,1.647210717201233,99.12804489620163
1561309315569,,8.676587104797363,-0.05746084079146385,202.79034183613862
1561309315570,-0.33518823981285095,,,
1561309315646,,8.53293514251709,,
1561309315647,,,0.8619126081466675,
1561309315648,0.038307227194309235,,,97.87968439140923
1561309315704,1.5610195398330688,8.379706382751465,0.8331822156906128,36.90722770848737
1561309315707,,,,34.61747850622692
1561309315810,1.2832920551300049,10.438719749450684,0.17238251864910126,13.0959101626745
1561309315875,-1.3311761617660522,13.982137680053711,2.4229321479797363,122.55034133387363
1561309315948,,12.36365795135498,,
1561309315949,1.5514427423477173,,1.3982137441635132,44.21739476204442
1561309315984,,9.251194953918457,,
1561309315985,2.279279947280884,,2.1068975925445557,46.21536169805654
1561309316067,1.580173134803772,7.441178798675537,-0.4213795065879822,342.1821828423834
1561309316132,1.436521053314209,7.862558364868164,-0.4213795065879822,341.0574316860953
1561309316210,1.072602391242981,8.65743350982666,0.5171475410461426,24.21432346627938
1561309316268,2.164358377456665,9.442731857299805,1.3215993642807007,31.136308671189795
1561309316334,1.1971008777618408,10.994174003601074,1.0342950820922852,40.160375093178175
1561309316335,,,,41.107432048019234
1561309316414,,11.425130844116211,,
1561309316415,0.9576807022094727,,1.6376339197158813,60.31227791850512
1561309316480,-0.009576806798577309,12.02846908569336,0.363918662071228,92.54090117761461
1561309316550,,7.747636795043945,,
1561309316551,1.4173674583435059,,2.250549554824829,63.00529856483604
1561309316620,,9.069235801696777,,
1561309316621,0.047884032130241394,,1.292868971824646,89.54910073623057
1561309316714,-1.2258312702178955,8.360552787780762,-0.3256114423274994,194.80530428126008
1561309316754,,7.65186882019043,,
1561309316755,0.26815059781074524,,1.2066776752471924,77.2829552511015
1561309316826,,9.624691009521484,,
1561309316827,0.28730419278144836,,0.9481038451194763,69.47255197292185
1561309316896,,12.4785795211792,1.742978811264038,90.0118323921206
1561309316897,-0.17238251864910126,,,
1561309316898,,,,89.21101320250415
1561309316968,1.3982137441635132,11.41555404663086,0.8331822156906128,23.846357270028705
1561309317036,,13.187262535095215,5.51624059677124,67.09052349987991
1561309317037,1.886630892753601,,,66.44035096259722
1561309317112,1.1971008777618408,8.47547435760498,0.5554547905921936,15.644087256145212
1561309317179,1.139639973640442,7.5848307609558105,0.5650315880775452,17.21609968985325
1561309317275,,8.312667846679688,,
1561309317276,1.091755986213684,,1.6089035272598267,47.25393635758661
1561309317342,,8.398859977722168,0.14365209639072418,358.0119850764954
1561309317343,1.4077905416488647,,,356.84932444932303
1561309317394,1.091755986213684,11.128249168395996,1.2449848651885986,40.826810310874635
1561309317453,,11.195286750793457,,
1561309317454,1.5897499322891235,,2.2218191623687744,47.96164299334288
1561309317455,,,,48.663960609844025
1561309317528,,12.804190635681152,,
1561309317530,-2.097320795059204,,1.7908629179000854,132.14386111753345
1561309317597,,7.987056732177734,,
1561309317686,-0.038307227194309235,9.27034854888916,2.2409727573394775,85.92793251377577
1561309317741,,9.08838939666748,,
1561309317742,-0.4405331015586853,,1.015141487121582,105.78420084616243
1561309317827,,8.858546257019043,0.7948749661445618,
1561309317828,0.7757213711738586,,,33.91006215351035
1561309317908,-0.1149216815829277,10.113107681274414,0.47884035110473633,90.3422154724633
1561309317978,,11.070788383483887,1.1492167711257935,
1561309317979,-0.6416460275650024,,,104.6111704977261
1561309318045,2.0015525817871094,11.195286750793457,2.7102363109588623,40.46906549271688
1561309318104,,8.494627952575684,,
1561309318105,2.126051187515259,,1.5131354331970215,22.3569252384807
1561309318163,,9.854534149169922,,
1561309318164,0.6991068720817566,,1.3886369466781616,50.20788389059044
1561309318228,,7.613561630249023,,
1561309318229,1.647210717201233,,0.8810662031173706,15.27590078629379
1561309318308,1.599326729774475,8.226476669311523,0.8619126081466675,19.152752017686225
1561309318365,,11.022904396057129,1.742978811264038,50.01186770669477
1561309318366,1.1300631761550903,,,50.96238073725584
1561309318440,2.0207061767578125,9.739612579345703,-0.4692635238170624,338.86750399100725
1561309318503,,10.735600471496582,,
1561309318504,1.3503297567367554,,-1.522712230682373,303.87584723147955
1561309318505,,,,306.2879865934775
1561309318580,-1.0630255937576294,11.999738693237305,4.098873138427734,101.94100366435805
1561309318645,,9.53849983215332,2.2697031497955322,90.71944682032313
1561309318646,-0.1149216815829277,,,90.41538728904163
1561309318723,,8.494627952575684,0.7948749661445618,
1561309318724,-0.3256114423274994,,,108.69894309333037
1561309318761,,,,107.35185220408545
1561309318810,,8.9064302444458,,
1561309318812,-0.4405331015586853,,0.9576807022094727,109.84328664725265
1561309318864,1.0821791887283325,8.695740699768066,0.5171475410461426,18.686962144595327
1561309318877,,,,17.505978040870502
1561309318933,,12.018892288208008,,
1561309318935,-0.047884032130241394,,0.6799532771110535,85.94594372261713
1561309318939,,,,86.93841802034416
1561309319004,-0.08619125932455063,12.047622680664063,1.091755986213684,87.6863100740822
1561309319005,,,,87.59196467107682
1561309319090,,11.712434768676758,,
1561309319091,0.9481038451194763,,4.07014274597168,75.45958161065323
1561309319145,,6.722918510437012,,
1561309319146,2.978386878967285,,0.6991068720817566,8.955519497251771
1561309319214,1.2641384601593018,7.766790390014648,-0.3447650372982025,333.6965538930455
1561309319221,,,,335.62449772968665
1561309319314,0.8236053586006165,7.6997528076171875,-0.689530074596405,309.89098651274014
1561309319354,2.279279947280884,8.83939266204834,1.4460978507995605,35.782394589929254
1561309319355,,,,36.746503112033224
1561309319449,,11.377246856689453,0.8427590131759644,19.34541116360475
1561309319450,2.403778553009033,,,22.361368276535813
1561309319504,1.9057846069335938,12.306197166442871,1.8483237028121948,50.006335253467114
1561309319581,2.5091233253479004,10.8505220413208,0.07661445438861847,3.9096997455450833
1561309319635,-0.06703764945268631,10.381258964538574,2.0877439975738525,101.46257623375527
1561309319647,,,,100.6342723629187
1561309319703,,10.524910926818848,,
1561309319704,0.28730419278144836,,1.8387469053268433,89.34817706141632
1561309319705,,,,90.15605866663464
1561309319775,,7.872135162353516,,
1561309319776,,,-0.8140285611152649,276.33877504531966
1561309319777,0.13407529890537262,,,278.870630547995
1561309319863,,6.282385349273682,,
1561309319864,1.5897499322891235,,-0.20111294090747833,356.337534746276
1561309319914,2.2409727573394775,7.843404769897461,1.235408067703247,52.26941256701866
1561309319915,,,,60.85019629677862
1561309319983,,11.013327598571777,,
1561309319984,1.216254472732544,,-0.4118026793003082,354.37288120416696
1561309319985,,,,3.6056355185085636
1561309320077,0.7757213711738586,12.947842597961426,0.4405331015586853,55.359526751315855
1561309320131,,11.444284439086914,1.656787633895874,91.08089360101104
1561309320132,1.7621324062347412,,,
1561309320193,,9.84495735168457,,
1561309320194,,,6.387730121612549,
1561309320195,3.1699230670928955,,,135.10614148132467
1561309320309,,8.111555099487305,,
1561309320310,2.537853717803955,,3.3710360527038574,129.29404664861568
1561309320336,,8.389283180236816,,
1561309320337,1.5610195398330688,,-0.45010992884635925,50.67011694267103
1561309320408,3.179499864578247,7.90086555480957,-0.15322890877723694,105.21564906946142
1561309320510,2.2601263523101807,8.96389102935791,1.1875240802764893,127.58018826131939
1561309320583,1.656787633895874,8.724471092224121,-0.26815059781074524,101.78328776623323
1561309320654,,9.346963882446289,,
1561309320655,0.7948749661445618,,-0.40222588181495667,87.71737377442741
1561309320702,,9.710882186889648,1.1109095811843872,
1561309320703,3.0166940689086914,,,153.80020531510948
1561309320753,,11.97100830078125,,
1561309320754,0.5267243981361389,,-0.8236053586006165,83.91120304811363
1561309320755,,,,93.69307895851489
1561309320867,1.2545616626739502,11.099518775939941,2.5474305152893066,199.9632855575353
1561309320938,,9.883264541625977,2.011129379272461,
1561309320939,1.2258312702178955,,,202.10321114525698
1561309320964,,9.165003776550293,,
1561309320965,1.8291701078414917,,1.7621324062347412,194.88432956995712
1561309320973,,,,198.79698977562055
1561309321034,,10.735600471496582,,
1561309321035,-0.10534487664699554,,0.6991068720817566,254.35189750323923
1561309321036,,,,260.2732002305876
1561309321103,,9.768342971801758,,
1561309321104,0.28730419278144836,,1.5322890281677246,237.20868959220832
1561309321105,,,,241.9642497829647
1561309321191,,9.634267807006836,,
1561309321192,-1.0247182846069336,,0.689530074596405,310.5872150155962
1561309321262,0.40222588181495667,10.093954086303711,2.3558945655822754,244.5108311734906
1561309321314,,12.507309913635254,1.3407529592514038,
1561309321315,-0.9097966551780701,,,298.7030751805567
1561309321316,,,,303.94943910469186
1561309321384,-0.7661445140838623,12.78503704071045,2.5665841102600098,281.1862764124936
1561309321393,,,,285.51188985537607
1561309321453,,7.51779317855835,,
1561309321454,4.003105163574219,,2.3750481605529785,209.65406723497608
1561309321455,,,,212.31285497318697
1561309321542,0.019153613597154617,10.074800491333008,0.689530074596405,280.8373561987435
1561309321612,,7.51779317855835,,
1561309321613,1.5418659448623657,,1.7334020137786865,234.25389511574747
1561309321664,1.9728221893310547,7.575253963470459,0.8044517636299133,216.266878804464
1561309321666,,,,218.11672625813526
1561309321734,0.7757213711738586,10.486603736877441,1.216254472732544,254.98457109586832
1561309321735,,,,257.48848429464914
1561309321803,,11.195286750793457,,
1561309321804,0.5171475410461426,,1.1492167711257935,267.24887926011075
1561309321805,,,,269.53930123600446
1561309321899,,10.812214851379395,,
1561309321900,1.5897499322891235,,1.9728221893310547,248.0682532404217
1561309321964,-1.0438719987869263,12.497733116149902,2.585737943649292,312.64902031468586
1561309322018,0.6512228846549988,7.738059997558594,1.2449848651885986,263.42889789129515
1561309322120,,9.040505409240723,,
1561309322122,,,2.1068975925445557,
1561309322123,0.31603461503982544,,,280.16991694323906
1561309322176,-1.7142484188079834,9.011775016784668,-0.3926490843296051,59.435008421508655
1561309322227,0.545877993106842,8.111555099487305,1.2258312702178955,268.9145438326234
1561309322319,,10.898406028747559,0.3926490843296051,231.3621159645691
1561309322320,0.9097966551780701,,,228.23413521151338
1561309322384,,11.35809326171875,3.428496837615967,
1561309322385,1.3215993642807007,,,256.31407424800045
1561309322461,1.2258312702178955,11.434707641601563,-0.2777273952960968,193.5930276658528
1561309322515,,11.405977249145508,,
1561309322516,1.3024457693099976,,4.185064792633057,250.97807775138722
1561309322574,2.3271639347076416,7.173028469085693,0.545877993106842,207.64879199655206
1561309322581,,,,207.84554242578338
1561309322660,1.9153614044189453,7.067683219909668,-0.45010992884635925,189.31372290554305
1561309322724,,8.973467826843262,,
1561309322725,0.43095630407333374,,0.6033388376235962,254.09661235282084
1561309322821,,9.279925346374512,,
1561309322822,,,-0.363918662071228,
1561309322823,0.6991068720817566,,,182.39431780459165
1561309322854,1.3886369466781616,10.831368446350098,1.3886369466781616,246.5270961862892
1561309322855,,,,248.20408521244576
1561309322935,,11.942277908325195,,
1561309322936,1.1683704853057861,,2.0590133666992188,261.4357189178912
1561309323005,,12.650961875915527,,
1561309323008,-0.5937620401382446,,0.9864110946655273,334.6723898499544
1561309323063,,8.101978302001953,,
1561309323072,0.5171475410461426,,2.0877439975738525,274.82635259702545
1561309323133,,9.490615844726563,,
1561309323134,-0.7757213711738586,,2.0877439975738525,316.14801352836207
1561309323135,,,,311.8550927859419
1561309323203,,8.101978302001953,,
1561309323204,-0.5841852426528931,,0.5937620401382446,347.7332756563387
1561309323205,,,,342.7283674570999
1561309323278,,8.312667846679688,0.8236053586006165,
1561309323279,0.181959331035614,,,280.6851795840356
1561309323352,,9.682151794433594,,
1561309323353,1.2066776752471924,,1.1779472827911377,240.73454252479564
1561309323417,,12.660538673400879,,
1561309323418,-1.0821791887283325,,1.1875240802764893,333.8820379252409
1561309323484,,10.103530883789063,,
1561309323486,2.0590133666992188,,1.359906554222107,225.86161436179611
1561309323559,,11.779472351074219,,
1561309323560,0.24899697303771973,,2.806004285812378,269.17807302137
1561309323624,,6.627150535583496,1.2737152576446533,211.37461920765895
1561309323625,2.738966703414917,,,
1561309323632,,,,211.58457922274516
1561309323698,,8.724471092224121,,
1561309323699,0.4692635238170624,,1.7334020137786865,261.17578240864805
1561309323763,,7.910442352294922,,
1561309323764,0.6991068720817566,,-0.4118026793003082,175.01826993402415
1561309323765,,,,175.59913654179869
1561309323833,,8.647856712341309,-0.181959331035614,
1561309323834,0.5554547905921936,,,186.564694708018
1561309323835,,,,187.07964999030196
1561309323903,,11.291055679321289,,
1561309323904,1.6280571222305298,,1.1683704853057861,229.8582449131157
1561309323905,,,,233.19980568151772
1561309323980,1.1875240802764893,11.961431503295898,1.867477297782898,251.932296159573
1561309324049,1.944091796875,10.678139686584473,1.5131354331970215,233.0092843848094
1561309324118,-2.298433542251587,12.574347496032715,2.2026655673980713,345.5938845309196
1561309324123,,,,346.1370467869284
1561309324184,1.6855180263519287,7.182605266571045,2.63362193107605,242.80604327741213
1561309324202,,,,246.07990321076096
1561309324254,-0.9672574996948242,7.7763671875,-0.2968810200691223,63.174591633603995
1561309324269,,,,61.61711042735516
1561309324324,,8.973467826843262,0.8427590131759644,
1561309324326,-1.015141487121582,,,355.29544211243655
1561309324337,,,,352.34047730813325
1561309324395,,8.9064302444458,1.216254472732544,
1561309324396,0.5937620401382446,,,266.2039969208822
1561309324406,,,,265.6708801655952
1561309324481,0.3064578175544739,11.1474027633667,1.0534487962722778,279.52077576452103
1561309324533,,10.812214851379395,,
1561309324535,0.5937620401382446,,-0.15322890877723694,197.02623591253814
1561309324549,,,,196.47110545755618
1561309324609,,10.90798282623291,,
1561309324610,2.432508945465088,,4.481945514678955,244.74880862455223
1561309324627,,,,243.32000135207727
1561309324678,0.8140285611152649,9.394847869873047,1.3407529592514038,259.21400181485865
1561309324698,,,,260.0360150814697
1561309324750,1.1300631761550903,7.642292022705078,0.4692635238170624,227.94756779469634
1561309324774,,,,229.75562815102546
1561309324821,0.5554547905921936,7.967903137207031,-1.1683704853057861,156.95524727765678
1561309324838,,,,157.30723424634422
1561309324888,,9.998186111450195,,
1561309324890,,,1.091755986213684,
1561309324891,1.091755986213684,,,250.8175546455136
1561309324912,,,,253.06030873118982
1561309324965,1.6184803247451782,10.007762908935547,0.47884035110473633,226.84505231925118
1561309324980,,,,228.65727909097404
1561309325026,,10.754754066467285,,
1561309325027,1.867477297782898,,2.5665841102600098,253.30474071101708
1561309325036,,,,255.80846266450112
1561309325102,0.22026655077934265,11.176133155822754,-0.14365209639072418,190.88767169788082
1561309325104,,,,190.08583481007804
1561309325176,,7.910442352294922,,
1561309325178,1.2449848651885986,,2.3367409706115723,258.9130841705954
1561309325234,,9.854534149169922,,
1561309325235,-0.9385270476341248,,3.2369606494903564,302.71035741188695
1561309325249,,,,303.52394564015674
1561309325308,,7.824251174926758,,
1561309325309,0.038307227194309235,,-0.3926490843296051,139.80288008294892
1561309325325,,,,139.77957547750083
1561309325377,-0.28730419278144836,9.452308654785156,1.0247182846069336,321.7606736674959
1561309325384,,,,317.11993237178194
1561309325454,,9.423578262329102,,
1561309325455,0.8140285611152649,,0.6799532771110535,249.29423121530397
1561309325514,,12.200851440429688,,
1561309325515,-0.8906430602073669,,,330.54299578909536
1561309325546,,,,327.88488423961235
1561309325585,,9.825803756713867,,
1561309325587,1.5322890281677246,,-0.6320692300796509,187.53385757010778
1561309325610,,,,184.61983932299188
1561309325667,-0.038307227194309235,11.91354751586914,4.692635536193848,264.7626425909019
1561309325732,,7.249642848968506,,
1561309325733,2.9496564865112305,,1.072602391242981,209.41593951975278
1561309325764,,,,210.14876417618177
1561309325800,0.727837324142456,9.030928611755371,-0.4405331015586853,176.06776948113162
1561309325816,,,,177.26824352965306
1561309325868,0.4118026793003082,8.772355079650879,0.7086837291717529,259.5732697652013
1561309325886,,,,260.4467553373976
1561309325938,,8.743624687194824,,
1561309325941,,,0.689530074596405,213.99230286744466
1561309325942,2.1930887699127197,,,
1561309325963,,,,216.31604250610974
1561309326005,0.6224924325942993,11.884817123413086,0.6991068720817566,253.71538534429658
1561309326021,,,,256.84190443686987
1561309326077,1.4844050407409668,11.396400451660156,3.4763808250427246,252.2476938048767
1561309326099,,,,254.73009873796116
1561309326149,,11.425130844116211,,
1561309326150,,,1.4939818382263184,
1561309326151,-1.7717092037200928,,,356.1754539303848
1561309326166,,,,358.7733043216464
1561309326219,,8.236053466796875,,
1561309326221,1.235408067703247,,2.7102363109588623,253.03408080477698
1561309326227,,,,255.62683427409218
1561309326293,,9.030928611755371,,
1561309326295,,,0.20111294090747833,30.41611303453618
1561309326296,-0.7757213711738586,,,
1561309326366,0.7374141216278076,7.929595947265625,1.2737152576446533,263.41913072078205
1561309326425,,9.02135181427002,,
1561309326426,0.8331822156906128,,1.4460978507995605,260.96117103473705
1561309326456,,,,259.90568824191666
1561309326503,,11.329362869262695,,
1561309326506,,,-0.028730420395731926,
1561309326508,,,,55.134622282325665
1561309326509,-0.08619125932455063,,,
1561309326569,,11.884817123413086,,
1561309326570,0.3926490843296051,,2.6144683361053467,278.5936458865835
1561309326601,,,,276.4558922990179
1561309326652,,11.616666793823242,,
1561309326653,0.38307225704193115,,1.1971008777618408,277.2363028833944
1561309326716,1.580173134803772,8.667010307312012,2.231395959854126,244.33507674576788
1561309326780,,7.987056732177734,,
1561309326781,1.3024457693099976,,0.5650315880775452,227.9243451515183
1561309326813,,,,230.24770229958983
1561309326848,,9.059659004211426,,
1561309326849,0.5267243981361389,,0.4596867263317108,253.29032901186832
1561309326876,,,,257.2964193751884
1561309326914,1.4460978507995605,9.117119789123535,1.5514427423477173,250.39703355869426
1561309326931,,,,253.42698743678193
1561309326984,1.5610195398330688,9.691728591918945,0.07661445438861847,220.59687722879357
1561309327026,,,,222.16876330400203
1561309327061,,11.27190113067627,,
1561309327063,3.313575267791748,,1.8962076902389526,234.09931427445173
1561309327093,,,,238.49798342069664
1561309327132,1.50355863571167,11.051634788513184,0.35434186458587646,237.5072781419646
1561309327148,,,,240.61622998799265
1561309327200,,11.396400451660156,,
1561309327201,-0.1149216815829277,,2.5282769203186035,316.1770042662942
1561309327226,,,,318.50035458417653
1561309327272,,10.017339706420898,4.577713489532471,
1561309327273,0.9289502501487732,,,272.02074311241597
1561309327287,,,,275.27762319548816
1561309327344,0.7948749661445618,7.881711959838867,0.28730419278144836,252.74312840651277
1561309327425,,7.4316020011901855,,
1561309327426,0.6129156351089478,,0.28730419278144836,261.9127188389574
1561309327499,0.7469909191131592,8.149862289428711,0.7852981686592102,282.5958088911308
1561309327552,1.5322890281677246,8.485051155090332,0.7086837291717529,260.1651329775396
1561309327568,,,,266.56058743707024
1561309327618,,10.582371711730957,,
1561309327619,0.08619125932455063,,-0.38307225704193115,180.0797169590361
1561309327632,,,,182.90976486049578
1561309327684,1.091755986213684,12.526463508605957,1.3407529592514038,302.4721648098665
1561309327710,,,,306.5481655744362
1561309327757,2.365471363067627,10.764330863952637,1.0630255937576294,270.75208328541027
1561309327781,,,,276.5684469863505
1561309327835,,10.132261276245117,,
1561309327836,,,2.537853717803955,
1561309327837,3.6296098232269287,,,273.05227243181713
1561309327894,,10.47702693939209,,
1561309327895,1.9057846069335938,,2.8155810832977295,315.89019779285616
1561309327928,,,,322.71623762294814
1561309327993,,7.240066051483154,0.3064578175544739,260.1517867879014
1561309327994,3.2848446369171143,,,264.32130308749237
1561309328055,,7.613561630249023,0.3064578175544739,264.50445461008627
1561309328056,3.399766445159912,,,266.7019382019436
1561309328123,,7.833827972412109,,
1561309328124,3.44765043258667,,1.0821791887283325,277.41490550000105
1561309328188,,8.96389102935791,,
1561309328189,2.1739351749420166,,-0.38307225704193115,265.66993076930055
1561309328269,1.647210717201233,8.552088737487793,-0.4692635238170624,265.20441239622915
1561309328314,1.50355863571167,9.08838939666748,-1.723825216293335,239.94409839252842
1561309328337,,,,243.19892941884962
1561309328398,,9.41400146484375,,
1561309328400,3.9169139862060547,,-1.6759412288665771,260.4296662040942
1561309328466,2.011129379272461,12.315773963928223,-0.24899697303771973,288.8749657196636
1561309328534,,10.342951774597168,-2.346317768096924,
1561309328535,3.514688014984131,,,254.90215803334297
1561309328604,1.359906554222107,11.281478881835938,4.711789131164551,21.68454092601712
1561309328671,1.6855180263519287,10.20887565612793,4.07014274597168,11.853310922447008
1561309328679,,,,17.176925139868672
1561309328750,2.0015525817871094,9.624691009521484,0.8044517636299133,318.4480148445667
1561309328808,,8.724471092224121,,
1561309328809,1.4269442558288574,,1.0247182846069336,340.43102820712426
1561309328823,,,,347.04435374834725
1561309328891,,9.078812599182129,,
1561309328892,-0.5841852426528931,,-0.9959878921508789,192.16385156316267
1561309328946,,8.96389102935791,,
1561309328949,-0.3734954595565796,,-0.7948749661445618,205.0885092465511
1561309328982,,,,216.81422284379215
1561309329025,0.28730419278144836,9.816226959228516,0.6991068720817566,45.15523437660056
1561309329084,0.3926490843296051,11.597513198852539,-1.3982137441635132,260.96126665738547
1561309329098,,,,263.7487761406944
1561309329168,,11.453861236572266,2.2218191623687744,29.535192801428366
1561309329169,2.585737943649292,,,
1561309329226,,10.54406452178955,,
1561309329227,1.4173674583435059,,0.5937620401382446,5.578265440907728
1561309329237,,,,5.300904692204995
1561309329310,,10.065223693847656,,
1561309329312,4.137180328369141,,4.2329487800598145,44.15326611592718
1561309329364,2.8443117141723633,9.461885452270508,1.6663644313812256,15.855452582653129
1561309329387,,,,17.400443080457308
1561309329445,2.1356279850006104,8.5903959274292,0.363918662071228,351.34696311410505
1561309329509,1.9249382019042969,8.935160636901855,0.6512228846549988,2.1144705399020722
1561309329529,,,,4.097778395851492
1561309329587,,10.113107681274414,,
1561309329588,1.4844050407409668,,1.1013327836990356,24.071150748444893
1561309329651,,10.342951774597168,1.2258312702178955,
1561309329652,1.9536685943603516,,,20.671780966455174
1561309329689,,,,21.07974133539085
1561309329743,,11.080365180969238,0.9864110946655273,
1561309329744,1.5131354331970215,,,21.20694336339858
1561309329787,,10.323798179626465,,
1561309329789,1.50355863571167,,2.7293899059295654,55.972058116082565
1561309329811,,,,55.78545051776865
1561309329854,-2.346317768096924,10.975020408630371,0.3734954595565796,158.16397219469562
1561309329876,,,,158.0874194344781
1561309329927,,9.040505409240723,4.309563159942627,
1561309329928,0.7948749661445618,,,83.36182361241282
1561309329948,,,,84.03129826428994
1561309330015,,7.450755596160889,4.309563159942627,
1561309330016,0.2585737705230713,,,93.90319606795197
1561309330066,,7.766790390014648,,
1561309330067,1.2737152576446533,,0.9959878921508789,27.134528157236048
1561309330101,,,,27.477603436603886
1561309330141,,10.103530883789063,0.6033388376235962,27.032500498961667
1561309330142,0.7182605266571045,,,
1561309330158,,,,26.78247117910962
1561309330204,-0.028730420395731926,11.951854705810547,1.5322890281677246,81.20816251427027
1561309330217,,,,82.55626427151236
1561309330279,1.800439715385437,9.998186111450195,0.8331822156906128,13.223492119954813
1561309330304,,,,16.79374128214721
1561309330344,-0.1628057211637497,12.469002723693848,4.060565948486328,94.3603474592901
1561309330360,,,,96.37325201901706
1561309330417,,7.843404769897461,,
1561309330418,2.38462495803833,,0.8236053586006165,14.383466561792659
1561309330441,,,,15.777947011046422
1561309330497,1.1492167711257935,8.724471092224121,-0.009576806798577309,351.48872027523413
1561309330577,,8.197746276855469,,
1561309330580,,,0.26815059781074524,12.089494595077781
1561309330581,0.9097966551780701,,,
1561309330629,,8.609549522399902,,
1561309330630,2.212242364883423,,1.1779472827911377,30.812345968666932
1561309330648,,,,31.799885454718662
1561309330695,,11.836933135986328,,
1561309330696,0.8236053586006165,,2.4803929328918457,77.12319712641488
1561309330712,,,,78.66927191674978
1561309330780,,9.864110946655273,,
1561309330783,,,2.31758713722229,54.385791077576755
1561309330784,2.38462495803833,,,54.37379385029959
1561309330852,0.05746084079146385,11.233593940734863,0.06703764945268631,48.59671056727609
1561309330915,,8.130708694458008,,
1561309330916,1.723825216293335,,2.652775526046753,71.37767614754603
1561309330997,,8.743624687194824,1.072602391242981,79.58552813352867
1561309330998,0.2777273952960968,,,
1561309331051,,8.456320762634277,0.038307227194309235,
1561309331052,-0.2968810200691223,,,172.08597410068927
1561309331069,,,,171.13734278724456
1561309331129,,9.41400146484375,,
1561309331130,-0.12449848651885986,,0.3447650372982025,109.45641790247396
1561309331195,1.6855180263519287,10.132261276245117,1.9536685943603516,53.7655791650883
1561309331254,-0.23942017555236816,11.836933135986328,1.6376339197158813,96.86658292238872
1561309331266,,,,96.90187450983024
1561309331331,,11.377246856689453,,
1561309331333,1.4460978507995605,,-0.38307225704193115,337.20462784322325
1561309331348,,,,336.5081893120502
1561309331406,,10.429142951965332,,
1561309331407,,,3.773261785507202,76.98676409774384
1561309331408,1.3407529592514038,,,76.28424499066222
1561309331476,,8.504204750061035,,
1561309331477,1.4939818382263184,,0.4213795065879822,9.67263044972151
1561309331535,1.9153614044189453,7.805097579956055,0.4213795065879822,4.870322736738217
1561309331571,,,,5.729550289042095
1561309331610,2.4229321479797363,8.283937454223633,1.9632453918457031,40.61722937128741
1561309331617,,,,40.91069869426076
1561309331673,1.5610195398330688,9.308655738830566,0.5937620401382446,15.122976265871841
1561309331684,,,,15.094171650594603
1561309331746,,11.66455078125,,
1561309331747,0.7565677165985107,,0.4884171485900879,26.60682261931896
1561309331754,,,,27.912133241410913
1561309331813,,11.894393920898438,3.6296098232269287,
1561309331814,2.557007312774658,,,59.94323596746011
1561309331832,,,,60.85910969364551
1561309331883,,13.704410552978516,0.43095630407333374,
1561309331884,-1.5418659448623657,,,160.1941366424552
1561309331898,,,,161.4091453335304
1561309331953,,7.201758861541748,1.1875240802764893,
1561309331954,1.0342950820922852,,,50.59546639013735
1561309331965,,,,51.32538138597994
1561309332025,0.7182605266571045,7.920019149780273,2.1356279850006104,76.74804898625189
1561309332035,,,,75.33516288473226
1561309332103,,8.034940719604492,0.363918662071228,73.56192283279188
1561309332104,0.08619125932455063,,,
1561309332105,,,,72.9596230914018
1561309332170,1.3024457693099976,8.753201484680176,1.3215993642807007,45.2019392101451
1561309332175,,,,43.23586925755694
1561309332245,0.49799394607543945,11.137825965881348,1.5705963373184204,69.6622468167406
1561309332303,,10.716446876525879,1.7334020137786865,
1561309332304,0.8236053586006165,,,60.66367749092393
1561309332317,,,,59.808722221945914
1561309332384,1.9249382019042969,11.741165161132813,-0.13407529890537262,344.9363968610358
1561309332458,,11.185709953308105,4.654327869415283,
1561309332459,1.1875240802764893,,,79.66597410157306
1561309332517,,7.3454108238220215,,
1561309332518,,,0.5267243981361389,
1561309332519,1.6184803247451782,,,9.466006128271204
1561309332528,,,,10.644630401637812
1561309332583,,7.067683219909668,,
1561309332584,1.216254472732544,,-0.871489405632019,310.5698048634018
1561309332605,,,,311.6082668248106
1561309332653,,9.011775016784668,,
1561309332654,1.359906554222107,,1.4460978507995605,43.836980546031384
1561309332692,,,,43.16962666789158
1561309332724,2.3942017555236816,8.542511940002441,0.8523358106613159,13.558538511953316
1561309332745,,,,12.5575845343717
1561309332797,,11.990161895751953,,
1561309332798,1.7621324062347412,,2.365471363067627,50.087505221563504
1561309332805,,,,49.8711658097925
1561309332875,2.719813108444214,11.712434768676758,2.231395959854126,35.84961048155134
1561309332937,-0.8236053586006165,13.129801750183105,4.9799394607543945,100.72388444482925
1561309332975,,,,100.76175784377699
1561309333034,0.7757213711738586,7.0772600173950195,0.3064578175544739,13.727776085434243
1561309333079,,8.236053466796875,,
1561309333080,0.7757213711738586,,,46.58754895121433
1561309333114,,,,44.83729931602022
1561309333155,,8.724471092224121,,
1561309333156,-1.0534487962722778,,0.3734954595565796,151.02477160625315
1561309333215,0.7469909191131592,8.973467826843262,0.8044517636299133,38.40764951440991
1561309333226,,,,37.77449439344434
1561309333292,,11.693281173706055,2.030282974243164,64.23900831385879
1561309333293,0.7182605266571045,,,
1561309333304,,,,64.88823145484685
1561309333353,,11.463438034057617,,
1561309333354,0.009576806798577309,,1.522712230682373,82.60828299223112
1561309333376,,,,83.15160405013819
1561309333425,,10.448296546936035,,
1561309333426,1.4460978507995605,,-0.2585737705230713,336.8804431595523
1561309333436,,,,338.29716611983827
1561309333495,,9.308655738830566,3.4093432426452637,55.2132206841996
1561309333496,2.9496564865112305,,,
1561309333505,,,,56.745256020695535
1561309333564,0.2585737705230713,8.916007041931152,0.7661445140838623,65.82164510682077
1561309333610,,,,67.12609512507731
1561309333672,,6.876147270202637,-0.5267243981361389,
1561309333673,1.4077905416488647,,,328.0928874055013
1561309333705,0.9864110946655273,9.155426979064941,0.8810662031173706,39.771566574675205
1561309333749,,,,40.905330165573105
1561309333801,,9.548076629638672,,
1561309333802,2.183511972427368,,0.7374141216278076,17.11660432421371
1561309333873,2.0207061767578125,10.812214851379395,2.231395959854126,53.57629071752518
1561309333944,1.2737152576446533,11.741165161132813,1.7334020137786865,56.261661551985696
1561309333992,,12.315773963928223,4.07014274597168,
1561309333993,-0.2968810200691223,,,101.82449429749596
1561309334002,,,,101.90543886934978
1561309334060,0.4118026793003082,8.772355079650879,2.4803929328918457,87.75030894660523
1561309334086,,,,87.83004457497594
1561309334125,,8.59997272491455,,
1561309334126,-0.20111294090747833,,0.4405331015586853,113.4885517770993
1561309334144,,,,112.17940941888293
1561309334197,0.4213795065879822,8.40843677520752,0.727837324142456,58.883436495084254
1561309334204,,,,57.90575638709947
1561309334264,0.7661445140838623,9.366117477416992,0.8236053586006165,45.127930695393445
1561309334291,,,,44.30205837190135
1561309334333,,11.224017143249512,1.1779472827911377,
1561309334334,0.028730420395731926,,,86.42414575697717
1561309334351,,,,85.42575651542893
1561309334403,,10.639832496643066,,
1561309334404,0.8523358106613159,,2.585737943649292,74.25775518467611
1561309334424,,,,74.4465279529569
1561309334489,,11.769895553588867,,
1561309334490,,,-0.7852981686592102,
1561309334491,0.6991068720817566,,,302.27579004103944
1561309334550,2.164358377456665,8.89685344696045,4.4723687171936035,80.40453611690486
1561309334554,,,,80.05857337506541
1561309334635,,8.628703117370605,,
1561309334637,,,0.5937620401382446,18.41756411580434
1561309334638,1.5131354331970215,,,20.103632170915148
1561309334685,1.9728221893310547,7.402871608734131,-0.19153612852096558,348.4466112217447
1561309334699,,,,349.2962918771362
1561309334761,,8.513781547546387,,
1561309334762,1.015141487121582,,0.10534487664699554,2.9927504780088725
1561309334765,,,,4.062031320169751
1561309334824,1.5705963373184204,8.552088737487793,0.2968810200691223,9.811103143633432
1561309334834,,,,10.608833380197723
1561309334900,,10.285490036010742,1.2641384601593018,
1561309334901,0.7565677165985107,,,62.580098798435245
1561309334911,,,,64.74227031228367
1561309334964,2.8443117141723633,10.457873344421387,0.43095630407333374,11.665529385369496
1561309334992,,,,12.107452016179423
1561309335037,0.49799394607543945,14.125789642333984,1.158793568611145,70.94071479539446
1561309335047,,,,70.13917160572589
1561309335119,,12.411541938781738,,
1561309335121,0.40222588181495667,,3.428496837615967,93.80010802280901
1561309335174,,9.126696586608887,1.7334020137786865,
1561309335175,,,,63.26534435710596
1561309335184,1.292868971824646,,,
1561309335188,,,,61.96252675406106
1561309335251,0.4405331015586853,10.189722061157227,1.9728221893310547,85.09194468012288
1561309335259,,,,85.74678223660868
1561309335315,,6.933608055114746,0.8331822156906128,
1561309335318,0.26815059781074524,,,77.0981303321609
1561309335344,,,,78.72472622262114
1561309335390,0.6703764796257019,6.521805286407471,0.9672574996948242,63.955849161437584
1561309335400,,,,64.86516590601968
1561309335453,,8.092401504516602,,
1561309335454,0.3256114423274994,,-0.1149216815829277,340.64840068500723
1561309335472,,,,345.6648945926256
1561309335523,,11.30063247680664,,
1561309335524,0.727837324142456,,1.1300631761550903,69.26863667525112
1561309335534,,,,72.62107793500098
1561309335595,0.13407529890537262,12.97657299041748,-0.2968810200691223,301.1898719252775
1561309335625,,,,305.5357846903732
1561309335669,0.1149216815829277,13.97256088256836,0.9193734526634216,99.29690766305185
1561309335675,,,,103.56559830939142
1561309335733,,9.136273384094238,,
1561309335735,4.041412353515625,,3.2848446369171143,93.99050637611225
1561309335764,,,,94.97750969231413
1561309335810,,7.7763671875,,
1561309335812,1.7717092037200928,,0.8140285611152649,57.992868619773844
1561309335819,,,,64.29557594056485
1561309335874,2.1068975925445557,8.609549522399902,1.7142484188079834,83.91634618055866
1561309335897,,,,90.6315832668401
1561309335959,,8.073247909545898,,
1561309335961,2.7676970958709717,,0.871489405632019,71.5578633680401
1561309336021,2.049436569213867,8.638279914855957,0.727837324142456,72.10593140742026
1561309336028,,,,79.31806475582016
1561309336083,,8.542511940002441,,
1561309336084,1.647210717201233,,1.2737152576446533,96.61924128197506
1561309336109,,,,102.90113018617586
1561309336162,,7.977479934692383,,
1561309336163,2.145204782485962,,-0.4884171485900879,52.069458779066565
1561309336174,,,,70.73014006328293
1561309336223,,10.074800491333008,,
1561309336224,0.7661445140838623,,-0.8619126081466675,16.338032768271205
1561309336234,,,,32.38281136452798
1561309336304,2.38462495803833,10.35252857208252,0.6416460275650024,108.5977196898308
1561309336306,,,,117.63901184890591
1561309336388,,11.760318756103516,,
1561309336390,,,0.4596867263317108,
1561309336391,,,,130.35077253586502
1561309336392,0.5363011956214905,,,138.75925449852764
1561309336443,-0.8619126081466675,12.373234748840332,1.9249382019042969,204.0460584546671
1561309336445,,,,211.84487773201437
1561309336507,,7.824251174926758,,
1561309336508,3.0358476638793945,,0.6799532771110535,135.6780605412865
1561309336517,,,,140.59287342273092
1561309336574,,11.013327598571777,1.944091796875,
1561309336575,0.9672574996948242,,,176.69426175256186
1561309336584,,,,184.03427354506834
1561309336651,0.8236053586006165,9.14585018157959,0.7565677165985107,165.86270187994552
1561309336654,,,,172.18476595684433
1561309336728,-0.9672574996948242,9.279925346374512,-0.8619126081466675,348.30169082925636
1561309336783,,8.40843677520752,0.7661445140838623,183.99431693842382
1561309336784,0.6512228846549988,,,
1561309336806,,,,188.60315100542994
1561309336853,-0.08619125932455063,11.243170738220215,0.12449848651885986,263.889252641354
1561309336864,,,,271.75193418744095
1561309336924,-0.047884032130241394,12.698845863342285,1.072602391242981,236.14083049661184
1561309336934,,,,243.59062710737146
1561309336999,0.47884035110473633,13.110648155212402,0.363918662071228,192.30822810183838
1561309337006,,,,196.04447818161884
1561309337069,1.8195933103561401,13.570335388183594,3.179499864578247,212.33024463481377
1561309337081,,,,217.03770663343494
1561309337143,2.6815059185028076,8.245630264282227,1.8291701078414917,194.8204536408391
1561309337151,,,,198.63437663186096
1561309337205,,7.843404769897461,,
1561309337206,,,0.17238251864910126,
1561309337207,0.8619126081466675,,,181.3763600710713
1561309337232,,,,186.31042042559682
1561309337281,,7.575253963470459,,
1561309337282,1.6089035272598267,,1.647210717201233,212.66620797970836
1561309337284,,,,217.26741955560084
1561309337344,0.6320692300796509,8.293514251708984,-0.23942017555236816,162.04953020973247
1561309337355,,,,168.5176373914645
1561309337426,,9.27034854888916,,
1561309337428,1.1109095811843872,,0.24899697303771973,198.85597528929281
1561309337492,,10.486603736877441,,
1561309337493,1.9823989868164063,,1.292868971824646,217.3508571465017
1561309337530,,,,218.905503824245
1561309337572,,11.779472351074219,,
1561309337573,1.9728221893310547,,2.346317768096924,232.19962010021771
1561309337633,1.0630255937576294,11.616666793823242,-0.17238251864910126,186.85392589861135
1561309337662,,,,189.98902370878227
1561309337694,,11.865663528442383,3.2369606494903564,
1561309337695,-1.1109095811843872,,,294.22318825489117
1561309337704,,,,295.255386932831
1561309337775,0.8331822156906128,8.513781547546387,2.1164743900299072,256.1845875217154
1561309337843,,9.126696586608887,,
1561309337844,-1.5897499322891235,,-0.7852981686592102,57.859297440365026
1561309337851,,,,57.18915001485465
1561309337909,,8.887276649475098,1.359906554222107,259.7975321964095
1561309337910,0.6033388376235962,,,
1561309337940,,,,260.02233421256216
1561309337980,0.5267243981361389,8.705317497253418,0.5554547905921936,244.87158810507236
1561309337987,,,,245.51976622711737
1561309338072,,10.65898609161377,,
1561309338075,,,1.235408067703247,282.2706987168274
1561309338076,0.10534487664699554,,,
1561309338126,-0.19153612852096558,12.536040306091309,2.1356279850006104,288.1868583117307
1561309338185,,11.35809326171875,,
1561309338187,,,-0.6129156351089478,
1561309338188,0.9576807022094727,,,170.29299480204756
1561309338216,,,,168.72840336887276
1561309338253,,9.643844604492188,,
1561309338254,1.3120225667953491,,4.271255970001221,252.42521725159452
1561309338280,,,,252.88432890722441
1561309338329,,9.126696586608887,,
1561309338331,1.580173134803772,,2.518700122833252,245.13836163367472
1561309338339,,,,248.5615636532259
1561309338401,0.24899697303771973,7.632715225219727,-0.5746083855628967,140.68947961835158
1561309338412,,,,142.51282593804316
1561309338463,,8.983044624328613,,
1561309338464,0.7948749661445618,,0.2106897532939911,218.90648737148547
1561309338475,,,,218.3179026499488
1561309338562,,9.883264541625977,0.6991068720817566,
1561309338563,1.1492167711257935,,,232.34601837488776
1561309338607,0.6416460275650024,11.195286750793457,-0.8140285611152649,158.80510839170637
1561309338633,,,,161.07850953618842
1561309338690,1.8291701078414917,11.176133155822754,2.4612393379211426,252.44257959246465
1561309338760,,11.856086730957031,,
1561309338761,-1.0630255937576294,,-0.8906430602073669,78.52885688779264
1561309338828,,8.121131896972656,1.7046716213226318,
1561309338829,1.015141487121582,,,257.97574315984866
1561309338923,-0.3256114423274994,9.481039047241211,2.078166961669922,298.88234032551287
1561309338957,,7.929595947265625,0.24899697303771973,
1561309338958,0.047884032130241394,,,286.17916518634047
1561309338996,,,,285.2603749693795
1561309339038,,8.015787124633789,0.6320692300796509,242.3055953169253
1561309339039,0.7661445140838623,,,
1561309339099,,10.333374977111816,,
1561309339100,0.08619125932455063,,0.5554547905921936,284.9614039290297
1561309339104,,,,283.48184835102154
1561309339181,0.9385270476341248,11.750741958618164,0.7661445140838623,240.05064934358057
1561309339253,0.009576806798577309,12.36365795135498,0.6703764796257019,290.17493513382465
1561309339303,,11.78904914855957,,
1561309339304,1.216254472732544,,2.585737943649292,258.53875565313285
1561309339315,,,,259.6915276604909
1561309339393,,8.513781547546387,,
1561309339395,0.47884035110473633,,0.047884032130241394,209.90840981928903
1561309339447,,7.134721279144287,,
1561309339448,1.9249382019042969,,-0.26815059781074524,195.18071879880063
1561309339461,,,,197.56490561162036
1561309339519,0.26815059781074524,8.83939266204834,-0.26815059781074524,164.40762569992268
1561309339548,,,,165.86557055939693
1561309339588,,9.02135181427002,,
1561309339589,1.359906554222107,,1.158793568611145,242.46602280015054
1561309339600,,,,245.6948239755448
1561309339654,0.871489405632019,11.386823654174805,2.3080103397369385,272.3007125664948
1561309339686,,,,274.9836381932325
1561309339727,1.3311761617660522,11.080365180969238,1.1109095811843872,249.2238939272312
1561309339735,,,,251.71707689882595
1561309339795,,12.938265800476074,,
1561309339797,-1.0630255937576294,,-0.5650315880775452,70.71410277911173
1561309339825,,,,71.12053318567337
1561309339887,,8.580819129943848,3.9169139862060547,
1561309339888,1.50355863571167,,,266.4437229003713
1561309339950,-0.05746084079146385,8.02536392211914,1.9536685943603516,302.9693206191734
1561309340004,-1.6376339197158813,8.686163902282715,-0.9289502501487732,78.54122636037954
1561309340015,,,,76.7183513237407
1561309340078,-0.4884171485900879,9.366117477416992,1.2832920551300049,325.0282122607679
1561309340085,,,,321.20399958976145
1561309340160,0.45010992884635925,10.342951774597168,1.235408067703247,279.11319788617885
1561309340214,,12.162544250488281,,
1561309340217,-0.08619125932455063,,1.4652514457702637,300.7035351356159
1561309340228,,,,297.8954872734727
1561309340283,,11.319786071777344,,
1561309340284,0.5554547905921936,,0.20111294090747833,227.63112513044962
1561309340312,,,,224.64485714229335
1561309340364,,10.438719749450684,3.112462282180786,
1561309340365,1.0055646896362305,,,264.76976647820624
1561309340426,,8.647856712341309,,
1561309340427,1.5610195398330688,,1.072602391242981,232.62529114967128
1561309340434,,,,233.32386923760185
1561309340523,2.5091233253479004,7.393294811248779,0.6512228846549988,213.66808744792252
1561309340565,,8.667010307312012,0.3734954595565796,357.2113803975075
1561309340566,-0.6512228846549988,,,
1561309340575,,,,357.2472352621121
1561309340633,,9.730035781860352,1.072602391242981,
1561309340634,1.4173674583435059,,,238.0464122939104
1561309340658,,,,239.30546204475388
1561309340703,,11.41555404663086,1.091755986213684,
1561309340704,1.0534487962722778,,,249.3580456727194
1561309340718,,,,250.8787804612336
1561309340794,1.944091796875,10.687716484069824,1.944091796875,245.70738469342848
1561309340844,-1.867477297782898,12.057199478149414,0.4118026793003082,22.796232760612156
1561309340855,,,,23.117021132718264
1561309340944,,8.485051155090332,,
1561309340945,,,1.9153614044189453,
1561309340946,1.8291701078414917,,,248.27032438701656
1561309340999,,7.766790390014648,0.5746083855628967,253.43751275829294
1561309341000,0.545877993106842,,,
1561309341053,,8.111555099487305,0.8044517636299133,
1561309341054,-0.5841852426528931,,,332.92520013950843
1561309341071,,,,331.20906900676584
1561309341125,,8.02536392211914,0.12449848651885986,
1561309341126,0.9576807022094727,,,212.7553556087554
1561309341136,,,,209.9077814418854
1561309341200,-1.1300631761550903,10.47702693939209,-0.06703764945268631,30.521789721374603
1561309341210,,,,23.82307486269542
1561309341266,-0.5267243981361389,12.382811546325684,1.235408067703247,307.80601662708034
1561309341309,,,,303.3298999658367
1561309341334,1.8195933103561401,12.229581832885742,-0.019153613597154617,192.4538477349431
1561309341376,,,,191.13971933863263
1561309341404,,11.78904914855957,2.499546527862549,267.69301914107996
1561309341405,0.2585737705230713,,,
1561309341445,,,,267.24561442968746
1561309341503,-0.47884035110473633,9.375694274902344,0.6607996821403503,315.7164309501819
1561309341547,,6.646304130554199,,
1561309341548,1.2545616626739502,,0.363918662071228,205.01635512815915
1561309341554,,,,206.52250746279526
1561309341621,,7.8529815673828125,-0.6991068720817566,143.1759280234247
1561309341622,0.5171475410461426,,,
1561309341630,,,,144.26873096987006
1561309341684,0.4213795065879822,9.59596061706543,0.8140285611152649,253.35267497861219
1561309341714,,,,254.5495563476302
1561309341756,0.7086837291717529,9.586383819580078,-0.2106897532939911,179.76536069020972
1561309341764,,,,182.14262533367673
1561309341824,1.3503297567367554,11.243170738220215,1.015141487121582,230.58932104111716
1561309341838,,,,232.91602498188206
1561309341897,-0.24899697303771973,12.4785795211792,0.8236053586006165,305.3983954352184
1561309341904,,,,304.4179627609981
1561309341971,1.3407529592514038,8.925583839416504,3.179499864578247,251.907024459644
1561309341980,,,,252.60626507592406
1561309342037,-0.4118026793003082,8.456320762634277,1.7046716213226318,295.3661521106011
1561309342063,,,,295.03196461489074
1561309342104,0.49799394607543945,7.603984832763672,0.38307225704193115,234.62480170843583
1561309342114,,,,233.10359563686893
1561309342176,0.028730420395731926,8.916007041931152,1.0534487962722778,281.74630411311045
1561309342185,,,,277.2510765825691
1561309342246,,10.429142951965332,0.5554547905921936,254.7947054973203
1561309342247,0.2777273952960968,,,
1561309342283,,,,253.28741935128187
1561309342346,-0.1628057211637497,11.932701110839844,2.231395959854126,278.65852585350945
1561309342395,0.047884032130241394,11.070788383483887,0.8810662031173706,274.88511271445503
1561309342453,,11.195286750793457,,
1561309342454,0.6512228846549988,,2.7293899059295654,256.3975186690905
1561309342466,,,,254.03048929146593
1561309342554,1.4173674583435059,9.165003776550293,2.451662540435791,237.51998229382082
1561309342605,,7.508216381072998,-0.8619126081466675,141.34790985434083
1561309342606,0.7852981686592102,,,
1561309342667,,8.705317497253418,0.363918662071228,
1561309342668,0.31603461503982544,,,234.79444994704062
1561309342677,,,,234.85598995146245
1561309342734,,8.322244644165039,,
1561309342735,1.522712230682373,,1.359906554222107,224.12298970856932
1561309342749,,,,226.00115512653946
1561309342813,,10.515334129333496,,
1561309342814,,,1.2258312702178955,242.69591330723483
1561309342815,0.7852981686592102,,,
1561309342864,,,,246.6248293631229
1561309342877,,11.109095573425293,,
1561309342878,1.2832920551300049,,2.145204782485962,246.16383940547126
1561309342888,,,,246.78506560105143
1561309342952,,11.185709953308105,,
1561309342953,0.14365209639072418,,-0.26815059781074524,132.46819948046067
1561309342954,,,,132.92692864549707
1561309343014,,11.185709953308105,2.63362193107605,289.22456895233074
1561309343015,-0.6033388376235962,,,
1561309343027,,,,291.2798753264251
1561309343096,0.23942017555236816,9.605537414550781,3.4189200401306152,270.89676718259864
1561309343162,,8.02536392211914,,
1561309343163,0.028730420395731926,,0.2106897532939911,279.83752578728036
1561309343200,,,,279.4749247046227
1561309343224,0.028730420395731926,8.015787124633789,0.8331822156906128,283.1634659130506
1561309343234,,,,284.5294354451614
1561309343314,1.139639973640442,8.312667846679688,1.3024457693099976,243.7387602500907
1561309343379,,10.591948509216309,,
1561309343382,-0.7565677165985107,,1.292868971824646,315.542537749008
1561309343433,,10.888829231262207,,
1561309343434,-0.6991068720817566,,0.2298433631658554,0.34178562759478837
1561309343467,,,,359.4059571569037
1561309343510,,11.97100830078125,,
1561309343511,0.38307225704193115,,1.656787633895874,271.0333026641072
1561309343519,,,,271.9654322405172
1561309343592,,10.96544361114502,1.7812861204147339,
1561309343593,0.6033388376235962,,,265.64332718248335
1561309343662,,8.341399192810059,,
1561309343663,2.671929121017456,,2.9975404739379883,240.92479061393715
1561309343720,,9.768342971801758,0.5171475410461426,260.88433140657446
1561309343721,0.31603461503982544,,,
1561309343752,,,,264.80647874499505
1561309343784,,7.6997528076171875,,
1561309343785,2.279279947280884,,1.6759412288665771,237.50037965090291
1561309343796,,,,239.6532825980476
1561309343853,,6.885724067687988,,
1561309343855,1.886630892753601,,-0.14365209639072418,204.20647227751397
1561309343888,,,,207.3736992975406
1561309343933,,8.216899871826172,,
1561309343934,1.0534487962722778,,-0.12449848651885986,206.46682776068133
1561309343994,1.647210717201233,9.117119789123535,-0.8331822156906128,192.08471699143888
1561309344004,,,,194.80018163938257
1561309344063,,10.860098838806152,,
1561309344064,1.6663644313812256,,1.2258312702178955,253.9688126832607
1561309344087,,,,257.326656622644
1561309344133,,11.204863548278809,,
1561309344134,1.599326729774475,,-0.12449848651885986,219.62250976255626
1561309344160,,,,221.77427889829875
1561309344210,1.9057846069335938,9.988609313964844,0.5937620401382446,241.18323131175214
1561309344222,,,,241.63648266507414
1561309344275,-0.8140285611152649,12.660538673400879,2.078166961669922,338.7345902173061
1561309344305,,,,338.7399211799533
1561309344355,1.9536685943603516,8.303091049194336,2.3558945655822754,267.19918280370973
1561309344414,0.6512228846549988,9.519346237182617,2.3080103397369385,300.01518184087286
1561309344426,,,,309.90102689082005
1561309344497,0.5746083855628967,8.341399192810059,1.1779472827911377,303.0866461936413
1561309344554,0.4118026793003082,8.59997272491455,0.8427590131759644,318.17986503284664
1561309344566,,,,332.84623461496665
1561309344624,,10.228029251098633,0.7948749661445618,
1561309344625,-0.6129156351089478,,,43.02443392161001
1561309344660,,,,62.384611954200295
1561309344722,,9.35654067993164,,
1561309344723,-0.3064578175544739,,-1.6376339197158813,187.97441843195202
1561309344801,1.7908629179000854,9.069235801696777,1.7334020137786865,339.4071435769516
1561309344851,1.5897499322891235,10.802638053894043,0.5267243981361389,327.35661008844687
1561309344916,-0.5841852426528931,10.946290016174316,0.31603461503982544,114.62845570806104
1561309344977,5.746084213256836,8.724471092224121,2.7964274883270264,341.9094363133519
1561309344989,,,,355.5696985401615
1561309345054,,12.660538673400879,,
1561309345055,0.6033388376235962,,1.9057846069335938,47.71301044717609
1561309345135,1.7717092037200928,8.236053466796875,1.015141487121582,3.7373185774986837
1561309345213,,9.040505409240723,0.14365209639072418,338.7200846030563
1561309345214,1.7142484188079834,,,342.9290145092528
1561309345257,1.3407529592514038,10.553641319274902,1.292868971824646,24.9822211440964
1561309345290,,,,27.667503186097747
1561309345327,,9.892841339111328,,
1561309345328,1.8579005002975464,,0.22026655077934265,347.895515701015
1561309345355,,,,349.86974516834033
1561309345419,,10.697293281555176,,
1561309345420,0.9002198576927185,,0.2106897532939911,356.8986576250376
1561309345464,,11.252747535705566,0.9864110946655273,
1561309345465,1.4939818382263184,,,19.76793691094548
1561309345476,,,,21.726346806379468
1561309345539,1.7717092037200928,11.233593940734863,-0.2298433631658554,338.5466165811582
1561309345546,,,,340.0530421233612
1561309345603,,13.560758590698242,,
1561309345604,-1.158793568611145,,6.665457725524902,95.55638871504021
1561309345630,,,,94.97600022050756
1561309345682,,7.623138427734375,,
1561309345683,0.35434186458587646,,1.6376339197158813,69.21551146388674
1561309345696,,,,69.35787309675732
1561309345756,,8.686163902282715,,
1561309345757,-0.2298433631658554,,1.7525556087493896,88.59096862965038
1561309345821,,9.35654067993164,2.585737943649292,82.9288101096015
1561309345822,-0.019153613597154617,,,
1561309345832,,,,81.81788667128808
1561309345889,-0.19153612852096558,9.165003776550293,0.6129156351089478,94.75053567600543
1561309345897,,,,94.54985788800127
1561309345970,-0.07661445438861847,10.764330863952637,2.4899697303771973,82.27300949644274
1561309346049,,11.233593940734863,-0.14365209639072418,
1561309346050,-0.4596867263317108,,,181.96284109434362
1561309346128,,9.864110946655273,-0.26815059781074524,
1561309346129,1.3503297567367554,,,331.58751783584523
1561309346206,0.9864110946655273,12.430695533752441,3.9264907836914063,71.69704896294661
1561309346261,2.250549554824829,7.479485988616943,-0.1628057211637497,340.3718019292838
1561309346330,,9.2033109664917,,
1561309346332,1.3407529592514038,,2.2026655673980713,57.474081601365526
1561309346388,-0.3734954595565796,8.360552787780762,-0.6607996821403503,231.10475443664302
1561309346444,0.5650315880775452,8.65743350982666,0.363918662071228,27.850034869024455
1561309346455,,,,31.28960885201616
1561309346520,1.7046716213226318,11.013327598571777,1.8195933103561401,50.62576852439014
1561309346524,,,,52.42564631409357
1561309346613,,10.5344877243042,,
1561309346614,2.4803929328918457,,1.0630255937576294,26.536799519947976
1561309346671,,11.48259162902832,0.47884035110473633,18.026448700909214
1561309346672,1.6663644313812256,,,
1561309346723,,13.043610572814941,,
1561309346724,,,4.108449935913086,110.10564104346201
1561309346726,-0.8331822156906128,,,
1561309346770,,,,109.2083181110624
1561309346819,-1.292868971824646,9.251194953918457,1.4173674583435059,134.4388593201711
1561309346871,,7.182605266571045,,
1561309346872,1.292868971824646,,0.10534487664699554,4.424449695267128
1561309346875,,,,5.394836014991995
1561309346963,0.5267243981361389,8.89685344696045,-0.45010992884635925,317.15380327987606
1561309347003,,9.279925346374512,,
1561309347004,0.9289502501487732,,0.7757213711738586,45.315115444692196
1561309347025,,,,44.41607130462177
1561309347086,0.5841852426528931,12.105083465576172,1.1013327836990356,66.6190150509064
1561309347156,1.1875240802764893,10.764330863952637,0.8044517636299133,39.67651766218529
1561309347222,0.1149216815829277,12.038045883178711,1.1875240802764893,91.77281908469001
1561309347227,,,,93.96707199706998
1561309347318,2.451662540435791,8.169015884399414,2.0015525817871094,59.006536994495434
1561309347354,1.3407529592514038,8.159439086914063,0.9289502501487732,45.1341939788623
1561309347383,,,,45.325538313365655
1561309347433,,8.47547435760498,,
1561309347434,0.19153612852096558,,0.10534487664699554,34.3193953904692
1561309347446,,,,34.84858820207802
1561309347507,,8.197746276855469,0.33518823981285095,
1561309347508,1.9919757843017578,,,18.18893377862196
1561309347564,,12.047622680664063,,
1561309347566,0.6799532771110535,,1.6855180263519287,81.15614379355145
1561309347575,,,,81.2134080995528
1561309347638,1.5705963373184204,11.08994197845459,1.3311761617660522,53.829499490435865
1561309347645,,,,56.75581207805777
1561309347734,-0.49799394607543945,12.4785795211792,-0.009576806798577309,191.1889240214134
1561309347774,,9.931148529052734,,
1561309347775,-0.15322890877723694,,2.8826189041137695,111.94660242102304
1561309347817,,,,112.49700638509938
1561309347876,-0.20111294090747833,9.050082206726074,1.9153614044189453,112.77778180150025
1561309347924,,7.7763671875,0.7661445140838623,
1561309347925,0.1628057211637497,,,89.66836266932819
1561309347983,,7.7763671875,,
1561309347984,-0.2298433631658554,,0.9864110946655273,113.3086514245503
1561309348023,,,,112.26054523603352
1561309348071,,10.611102104187012,0.9672574996948242,
1561309348131,0.33518823981285095,12.631808280944824,2.3750481605529785,93.3705505957177
1561309348142,,,,91.4816549505615
1561309348221,,10.90798282623291,,
1561309348224,-0.9864110946655273,,0.3256114423274994,164.18057655153314
1561309348276,,9.758766174316406,,
1561309348277,1.599326729774475,,1.6855180263519287,57.3957734825313
1561309348359,,11.08994197845459,,
1561309348360,0.08619125932455063,,1.7334020137786865,95.84179499969838
1561309348406,0.3926490843296051,6.9240312576293945,-0.06703764945268631,353.24318285648565
1561309348414,,,,353.1391714551442
1561309348498,0.6703764796257019,7.527369976043701,0.12449848651885986,14.679157403793567
1561309348545,,8.734047889709473,,
1561309348547,1.1492167711257935,,0.9959878921508789,51.484941435180644
1561309348561,,,,51.20907692479295
1561309348615,,10.812214851379395,,
1561309348623,,,-0.08619125932455063,
1561309348624,0.9193734526634216,,,358.7031418437276
1561309348660,,,,359.8534941231701
1561309348683,,11.195286750793457,,
1561309348684,3.045424461364746,,3.026270866394043,66.00670225219312
1561309348720,,,,64.53142237260539
1561309348776,-0.545877993106842,12.497733116149902,1.1683704853057861,122.75323893335803
1561309348838,,10.582371711730957,,
1561309348839,-1.2641384601593018,,2.0590133666992188,130.7496282626371
1561309348895,-0.15322890877723694,7.939172744750977,2.3558945655822754,106.53199044706298
1561309348907,,,,104.16532989965356
1561309348971,-0.689530074596405,7.632715225219727,0.5841852426528931,141.5668720587531
1561309349009,,,,139.71501652946586
