timestamp,AccX,AccY,AccZ,CompassSensor
1561308546558,,,,56.804405458907866
1561308546595,,,2.346317768096924,
1561308546598,1.7908629179000854,10.228029251098633,,87.40741978989223
1561308546615,,,,87.987692171209
1561308546664,,,1.3503297567367554,72.41173946712922
1561308546665,1.3694833517074585,10.046070098876953,,
1561308546685,,,,73.7511873746929
1561308546739,1.37906014919281,10.08437728881836,1.235408067703247,70.24460240575422
1561308546756,,,,70.55743873011915
1561308546805,2.049436569213867,9.739612579345703,2.5091233253479004,90.31125422495563
1561308546825,,,,88.61226515948249
1561308546874,,,3.2752678394317627,
1561308546875,0.8140285611152649,10.180145263671875,,111.00314839096922
1561308546895,,,,111.84354169663675
1561308546944,,,0.13407529890537262,26.73059076972146
1561308546945,1.139639973640442,9.979032516479492,,
1561308546967,,,,30.811615138425736
1561308547026,,,3.093308687210083,114.07698623447422
1561308547027,0.7086837291717529,10.47702693939209,,
1561308547038,,,,115.27295235814347
1561308547089,,,1.4269442558288574,130.73514826159666
1561308547090,-0.31603461503982544,10.113107681274414,,
1561308547106,,,,133.4895176670527
1561308547160,0.019153613597154617,8.973467826843262,-0.5937620401382446,292.71175618402657
1561308547174,,,,293.3623726836053
1561308547228,0.2968810200691223,9.327810287475586,0.9097966551780701,103.6160460866011
1561308547244,,,,103.83019300764852
1561308547294,-0.05746084079146385,9.078812599182129,-0.2106897532939911,279.0354498428566
1561308547323,,,,278.27029107089675
1561308547367,-0.871489405632019,9.643844604492188,0.38307225704193115,181.1966987751432
1561308547391,,,,179.29644088293165
1561308547439,,,0.2585737705230713,
1561308547440,0.363918662071228,9.787496566772461,,61.0398433292732
1561308547461,,,,59.84285267722845
1561308547507,,,-0.5363011956214905,328.548092192926
1561308547508,0.4405331015586853,10.189722061157227,,
1561308547526,,,,328.8419064404524
1561308547574,,,-0.05746084079146385,
1561308547575,-0.727837324142456,11.166556358337402,,204.6119806085377
1561308547595,,,,206.08900901655295
1561308547644,1.455674648284912,10.831368446350098,0.5363011956214905,51.5045099271527
1561308547674,,,,55.02618619906252
1561308547724,1.3407529592514038,9.394847869873047,0.6129156351089478,60.72191851397662
1561308547743,,,,62.35660817860327
1561308547789,,,-0.028730420395731926,27.85250056731485
1561308547790,0.6416460275650024,9.519346237182617,,
1561308547807,,,,28.317791836596314
1561308547855,-0.07661445438861847,8.705317497253418,0.6224924325942993,129.3533463509897
1561308547874,,,,129.45687835842878
1561308547924,1.8579005002975464,7.7763671875,-1.1492167711257935,355.24528461826657
1561308547961,,,,356.9772062945966
1561308547993,,,0.038307227194309235,
1561308547994,1.1013327836990356,9.53849983215332,,36.740250073848074
1561308548020,,,,36.55400789065476
1561308548076,,,-1.1971008777618408,
1561308548078,0.3256114423274994,10.342951774597168,,308.0756861558908
1561308548094,,,,309.7238791045066
1561308548149,,,-1.599326729774475,
1561308548151,0.2298433631658554,12.105083465576172,,301.102957768089
1561308548167,,,,300.72597913722853
1561308548219,,,3.07415509223938,
1561308548220,-0.8331822156906128,11.980585098266602,,145.797532211794
1561308548242,,,,146.77777364071756
1561308548276,2.4133553504943848,7.33583402633667,0.8906430602073669,78.82215887113136
1561308548299,,,,77.36635186086733
1561308548344,-0.38307225704193115,10.381258964538574,0.2298433631658554,179.39797847513307
1561308548374,,,,180.21809659162045
1561308548414,-1.1013327836990356,9.576807022094727,-0.8331822156906128,239.41572861871452
1561308548440,,,,240.10807757412204
1561308548488,-0.2298433631658554,8.465897560119629,-0.14365209639072418,242.08861386737232
1561308548504,,,,239.87743574622908
1561308548554,,,-1.2066776752471924,
1561308548555,-0.43095630407333374,9.21288776397705,,269.8594458627813
1561308548575,,,,268.5028405200226
1561308548625,0.24899697303771973,10.08437728881836,-2.0590133666992188,290.43998745475614
1561308548644,,,,291.0595061030438
1561308548694,-0.6703764796257019,11.635820388793945,0.05746084079146385,202.6235212958502
1561308548714,,,,202.82115964967363
1561308548765,0.871489405632019,12.344504356384277,1.216254472732544,93.00322985234362
1561308548786,,,,91.1413066242198
1561308548834,2.0590133666992188,9.452308654785156,-0.15322890877723694,32.73105880464482
1561308548856,,,,31.826936418926493
1561308548904,0.5746083855628967,8.65743350982666,0.6703764796257019,84.04767022773046
1561308548925,,,,82.91170048573065
1561308548973,,,-0.5841852426528931,314.28645571535884
1561308548974,0.23942017555236816,8.312667846679688,,
1561308548994,,,,312.59324157482894
1561308549043,,,1.359906554222107,123.15876092476003
1561308549044,0.019153613597154617,8.858546257019043,,
1561308549069,,,,122.63824586849171
1561308549115,1.0534487962722778,9.337387084960938,-0.9959878921508789,335.0920247197289
1561308549138,,,,331.9487067768919
1561308549192,,,-1.723825216293335,
1561308549193,-0.9385270476341248,12.430695533752441,,251.01941405624416
1561308549205,,,,250.70170780700101
1561308549257,1.9249382019042969,10.84094524383545,0.8044517636299133,58.34504000356884
1561308549274,,,,56.97176899923528
1561308549326,,,0.14365209639072418,
1561308549327,-1.1779472827911377,10.400412559509277,,192.14121631625324
1561308549344,,,,190.47180880007545
1561308549394,,,0.545877993106842,125.48262350683012
1561308549395,-0.12449848651885986,9.979032516479492,,
1561308549423,,,,123.89545146825924
1561308549465,,,0.14365209639072418,33.90098824719797
1561308549466,0.6416460275650024,7.661445617675781,,
1561308549488,,,,30.14935999650129
1561308549538,0.2106897532939911,8.293514251708984,0.4596867263317108,84.20092601232722
1561308549556,,,,82.26624760916445
1561308549603,,,-1.292868971824646,
1561308549604,-0.4692635238170624,8.858546257019043,,251.83256173731252
1561308549625,,,,251.7941829043662
1561308549673,,,0.6799532771110535,
1561308549674,0.5746083855628967,10.113107681274414,,67.52934266348569
1561308549696,,,,67.19331101669945
1561308549744,0.7469909191131592,11.022904396057129,-2.3558945655822754,284.19389557199537
1561308549766,,,,283.7236097268833
1561308549828,-0.727837324142456,12.459425926208496,2.7485435009002686,126.70761793447193
1561308549850,,,,126.02224943239617
1561308549886,1.0247182846069336,9.653421401977539,-1.2449848651885986,310.8132772016507
1561308549905,,,,311.47598996624953
1561308549959,,,1.072602391242981,
1561308549963,0.7182605266571045,8.925583839416504,,75.02585776816824
1561308549983,,,,74.99606448300864
1561308550037,,,-1.4844050407409668,
1561308550038,-0.08619125932455063,8.121131896972656,,266.3756805558596
1561308550050,,,,267.53629362038487
1561308550094,,,-2.920926094055176,
1561308550095,0.2968810200691223,8.169015884399414,,266.1818397872147
1561308550121,,,,266.92541516139727
1561308550176,0.5554547905921936,10.467450141906738,-0.2106897532939911,350.3451749996711
1561308550195,,,,348.4721808886763
1561308550235,1.015141487121582,10.046070098876953,-2.298433542251587,290.02350983992545
1561308550255,,,,290.2956177462696
1561308550304,0.6607996821403503,10.381258964538574,-1.7046716213226318,291.6095275765266
1561308550328,,,,291.3977234103645
1561308550386,-0.028730420395731926,,1.6376339197158813,105.173971255146
1561308550387,,13.292608261108398,,
1561308550403,,,,104.34177417648249
1561308550445,,,-0.8523358106613159,
1561308550446,0.19153612852096558,9.691728591918945,,286.4248402605966
1561308550467,,,,286.42445093981394
1561308550514,0.10534487664699554,10.314221382141113,0.20111294090747833,71.31517991664037
1561308550535,,,,71.1786785860777
1561308550589,1.072602391242981,8.255207061767578,-2.183511972427368,290.5576784443446
1561308550604,,,,291.2135268688276
1561308550655,-0.05746084079146385,8.08282470703125,-0.5554547905921936,269.3337603533113
1561308550675,,,,269.3850004324647
1561308550730,-0.6129156351089478,,0.871489405632019,136.89224960966135
1561308550731,,9.797073364257813,,
1561308550756,,,,136.64992815828762
1561308550796,,,-3.1028854846954346,
1561308550797,0.35434186458587646,11.252747535705566,,271.36164351788807
1561308550820,,,,271.55388602226725
1561308550867,0.07661445438861847,13.350069046020508,0.14365209639072418,70.79752670963427
1561308550885,,,,71.65488620520011
1561308550939,1.2449848651885986,8.465897560119629,-0.40222588181495667,349.9176478463106
1561308550954,,,,353.3488796070048
1561308551004,,,0.12449848651885986,
1561308551005,1.235408067703247,10.266336441040039,,19.89840718447107
1561308551024,,,,21.755378525446645
1561308551074,-0.17238251864910126,9.011775016784668,-0.3256114423274994,254.13949911061934
1561308551094,,,,255.9666498456786
1561308551144,-0.35434186458587646,,-0.20111294090747833,223.62404438969992
1561308551145,,7.718906402587891,,
1561308551172,,,,224.18233039207843
1561308551215,,,-6.435614109039307,
1561308551216,2.470816135406494,8.561665534973145,,264.7990816501239
1561308551238,,,,268.2770891075753
1561308551284,,,0.4596867263317108,
1561308551286,,,,134.0191305352955
1561308551287,-0.19153612852096558,9.77791976928711,,
1561308551304,,,,135.56390075949892
1561308551355,0.028730420395731926,11.15697956085205,-0.4692635238170624,292.7982946808106
1561308551377,,,,293.7920120729666
1561308551436,-1.0055646896362305,12.449849128723145,-0.17238251864910126,210.00363631669734
1561308551455,,,,210.12383398571126
1561308551499,-0.12449848651885986,9.011775016784668,-0.028730420395731926,215.0064220346515
1561308551518,,,,215.4486631230315
1561308551571,-0.5267243981361389,9.557653427124023,0.38307225704193115,167.6192899306894
1561308551588,,,,165.83852301028367
1561308551637,,,-1.3886369466781616,
1561308551638,0.6033388376235962,8.149862289428711,,305.5648471452916
1561308551656,,,,303.71819280505736
1561308551704,-0.49799394607543945,8.96389102935791,-1.6280571222305298,261.91987687720757
1561308551730,,,,260.6230903311998
1561308551779,0.23942017555236816,8.695740699768066,-0.6320692300796509,304.98225932984616
1561308551794,,,,304.8030146754575
1561308551844,0.31603461503982544,11.702857971191406,-1.436521053314209,293.619959607774
1561308551875,,,,293.81992705610446
1561308551917,1.1300631761550903,12.038045883178711,-1.1300631761550903,328.85666989434344
1561308551936,,,,331.2685906902879
1561308551998,-0.3064578175544739,11.836933135986328,0.3734954595565796,150.13660112734135
1561308552017,,,,149.52353700781936
1561308552060,,,0.047884032130241394,
1561308552061,1.3694833517074585,9.576807022094727,,24.34247318303443
1561308552077,,,,24.126770686403574
1561308552125,-0.3447650372982025,8.983044624328613,-1.158793568611145,265.5886720087449
1561308552144,,,,266.64093778246627
1561308552194,,,-0.8331822156906128,
1561308552195,0.19153612852096558,6.885724067687988,,297.2389968112078
1561308552223,,,,298.5948644935362
1561308552264,0.1149216815829277,8.446743965148926,-1.5610195398330688,285.9085121102895
1561308552290,,,,286.22170360449127
1561308552335,0.6129156351089478,11.425130844116211,-0.5363011956214905,339.6807951060482
1561308552355,,,,339.47064213811797
1561308552404,0.8236053586006165,12.02846908569336,-0.6607996821403503,341.7581800666346
1561308552429,,,,338.7834431453446
1561308552473,,,3.160346269607544,
1561308552474,-0.38307225704193115,11.72201156616211,,127.5701888643745
1561308552498,,,,125.28471194543985
1561308552544,,,0.8044517636299133,
1561308552545,0.20111294090747833,9.097966194152832,,98.00596092878442
1561308552574,,,,95.37129058853287
1561308552614,0.6991068720817566,9.011775016784668,0.9481038451194763,75.1491017015519
1561308552636,,,,72.84646734742222
1561308552693,,,0.08619125932455063,29.465176532246574
1561308552694,0.2968810200691223,8.561665534973145,,
1561308552718,,,,25.977408734471226
1561308552754,,,0.3734954595565796,
1561308552755,0.7757213711738586,8.188169479370117,,38.2669578627914
1561308552775,,,,35.79331947750666
1561308552824,,,-1.522712230682373,
1561308552825,-0.363918662071228,10.160991668701172,,255.5506776648465
1561308552844,,,,256.8150549632426
1561308552894,1.1013327836990356,10.390835762023926,0.5937620401382446,40.70947790621756
1561308552923,,,,41.41739627783812
1561308552964,,,0.7182605266571045,
1561308552965,0.6607996821403503,11.884817123413086,,59.91153705952212
1561308552988,,,,60.91942026401671
1561308553034,2.0015525817871094,8.973467826843262,1.3120225667953491,55.19479624891346
1561308553055,,,,56.97287207478621
1561308553113,,,0.363918662071228,
1561308553119,,,,29.228715383180713
1561308553120,1.4652514457702637,10.429142951965332,,
1561308553133,,,,29.67864384947154
1561308553184,0.20111294090747833,8.322244644165039,0.47884035110473633,82.2232925494742
1561308553200,,,,82.8329962159246
1561308553243,,,0.43095630407333374,
1561308553244,0.5554547905921936,7.862558364868164,,54.040060562169
1561308553281,,,,54.78566791762972
1561308553314,,,-0.507570743560791,
1561308553315,1.2641384601593018,8.65743350982666,,349.9722347181573
1561308553335,,,,348.78920241145516
1561308553390,,,0.08619125932455063,
1561308553392,0.9959878921508789,11.042057991027832,,18.700935004089843
1561308553407,,,,19.52535420483605
1561308553455,1.359906554222107,12.631808280944824,0.5937620401382446,40.51665483575897
1561308553474,,,,41.0244350043198
1561308553523,,,3.6296098232269287,107.06870671204257
1561308553524,0.6512228846549988,11.999738693237305,,
1561308553544,,,,106.38045587013704
1561308553593,,,1.9536685943603516,84.42065319792653
1561308553594,1.2066776752471924,8.561665534973145,,
1561308553617,,,,83.99216128034578
1561308553664,0.3734954595565796,9.730035781860352,0.2968810200691223,53.03165143310832
1561308553686,,,,51.769207078247405
1561308553736,0.6416460275650024,7.833827972412109,0.23942017555236816,34.32706227781256
1561308553754,,,,35.92054199608191
1561308553804,,,-0.2106897532939911,
1561308553805,0.7948749661445618,8.255207061767578,,357.91316547269685
1561308553824,,,,358.09118773666745
1561308553875,1.1875240802764893,9.47146224975586,0.4596867263317108,38.57024899779128
1561308553895,,,,38.119429191813765
1561308553945,1.1109095811843872,11.865663528442383,0.4118026793003082,36.02166294674396
1561308553966,,,,38.163603440270776
1561308554014,0.49799394607543945,13.79060173034668,3.3901896476745605,107.29773661529143
1561308554035,,,,110.52179080921255
1561308554091,3.0358476638793945,7.747636795043945,0.4118026793003082,39.69942611666153
1561308554104,,,,42.67387787755371
1561308554168,1.7525556087493896,8.96389102935791,0.727837324142456,51.465984245139225
1561308554188,,,,52.95161186131952
1561308554233,,,1.1683704853057861,
1561308554234,0.5267243981361389,8.992621421813965,,94.21181816559903
1561308554253,,,,95.30338484780464
1561308554301,1.4173674583435059,7.680599212646484,-0.09576806426048279,22.548008318248264
1561308554324,,,,24.11469661949826
1561308554375,,,-0.6416460275650024,
1561308554377,1.0342950820922852,9.940725326538086,,350.8656157776322
1561308554393,,,,353.3763587386962
1561308554449,1.3407529592514038,,-0.07661445438861847,25.607922821130217
1561308554450,,10.678139686584473,,
1561308554459,,,,26.98581957107922
1561308554504,,,0.33518823981285095,
1561308554505,1.4748282432556152,11.568782806396484,,44.99506985565836
1561308554525,,,,45.06921838928798
1561308554585,,,1.0630255937576294,113.82976753746561
1561308554586,0.15322890877723694,10.390835762023926,,
1561308554602,,,,113.68635405546286
1561308554644,1.6663644313812256,8.542511940002441,1.4939818382263184,82.92694546795809
1561308554665,,,,81.84498203172552
1561308554714,,,0.4405331015586853,
1561308554715,0.7948749661445618,,,59.606596433837694
1561308554716,,9.452308654785156,,
1561308554741,,,,59.6287672278836
1561308554788,0.6703764796257019,8.216899871826172,0.181959331035614,44.57205233469733
1561308554807,,,,45.217614494290274
1561308554857,,,-0.047884032130241394,
1561308554858,,,,25.386387342948183
1561308554859,0.7852981686592102,8.925583839416504,,
1561308554884,,,,25.1208261729235
1561308554924,,,-0.5937620401382446,
1561308554925,1.3694833517074585,9.241618156433105,,3.753592783856675
1561308554969,,,,3.4130179940552807
1561308555012,0.6607996821403503,11.760318756103516,-0.5937620401382446,343.23759050312293
1561308555034,,,,345.5761448220978
1561308555076,0.40222588181495667,13.66610336303711,3.1699230670928955,121.14728387456961
1561308555089,,,,123.11635911039258
1561308555142,2.7006595134735107,8.293514251708984,0.26815059781074524,51.026622081494395
1561308555158,,,,52.574404419121834
1561308555208,1.359906554222107,,0.38307225704193115,54.23351884022048
1561308555209,,9.940725326538086,,
1561308555224,,,,55.59729929670232
1561308555277,0.49799394607543945,,0.363918662071228,73.76710854564823
1561308555278,,7.766790390014648,,
1561308555299,,,,74.68563238523154
1561308555351,1.0342950820922852,7.920019149780273,-0.06703764945268631,34.888664337033106
1561308555367,,,,34.8675727128761
1561308555414,,,-0.8044517636299133,
1561308555415,0.5937620401382446,10.371682167053223,,339.1055616967916
1561308555439,,,,339.4979885080074
1561308555485,0.9289502501487732,,0.8427590131759644,82.44058135753983
1561308555486,,12.162544250488281,,
1561308555508,,,,83.6681712570662
1561308555557,-0.507570743560791,13.464990615844727,3.7636849880218506,141.6923699545629
1561308555579,,,,140.9363363153342
1561308555625,0.7182605266571045,8.006210327148438,1.1683704853057861,102.21636274074706
1561308555644,,,,101.37728766158938
1561308555693,,,1.8291701078414917,
1561308555695,0.7374141216278076,8.887276649475098,,112.68767111578029
1561308555720,,,,109.48160764013295
1561308555764,,,0.40222588181495667,
1561308555765,0.08619125932455063,8.772355079650879,,110.93656770693991
1561308555788,,,,110.53082031929529
1561308555842,,,-0.5841852426528931,
1561308555843,0.6703764796257019,,,347.6051822886443
1561308555844,,6.368576526641846,,
1561308555856,,,,346.50015842622645
1561308555919,,,0.3926490843296051,
1561308555920,,,,56.1938138678654
1561308555923,0.9576807022094727,10.160991668701172,,
1561308555943,,,,55.42476530317322
1561308555988,,,0.31603461503982544,
1561308555989,0.7948749661445618,12.047622680664063,,53.376330099383836
1561308556005,,,,53.000263298777554
1561308556054,0.2585737705230713,12.057199478149414,-0.14365209639072418,359.1937488890027
1561308556081,,,,359.22187208618845
1561308556114,1.1492167711257935,10.170568466186523,1.0247182846069336,78.01016549203274
1561308556144,,,,79.15792414053999
1561308556193,2.6431987285614014,8.523358345031738,-0.17238251864910126,36.41886235264229
1561308556214,,,,38.447165573853056
1561308556255,,,0.20111294090747833,
1561308556257,0.17238251864910126,9.040505409240723,,82.16657465860646
1561308556291,,,,82.52331543895622
1561308556324,1.1683704853057861,7.910442352294922,1.5610195398330688,97.4152246976592
1561308556360,,,,97.22339883481936
1561308556399,0.363918662071228,,-0.5650315880775452,331.6312515371008
1561308556400,,9.232041358947754,,
1561308556430,,,,331.8413088823827
1561308556466,1.0534487962722778,9.528923034667969,-0.3926490843296051,12.03584175160006
1561308556508,,,,11.898126354912392
1561308556536,,,0.4118026793003082,
1561308556537,1.2737152576446533,11.27190113067627,,54.426744891840144
1561308556564,,,,54.41305377764883
1561308556606,-0.10534487664699554,13.21599292755127,2.9496564865112305,131.54232635733044
1561308556639,,,,131.72704199324426
1561308556674,,,1.3886369466781616,
1561308556675,0.8619126081466675,9.184157371520996,,99.02231356784984
1561308556710,,,,98.99311450914803
1561308556744,,,1.292868971824646,
1561308556745,0.6703764796257019,10.132261276245117,,101.4687985360892
1561308556778,,,,100.97685416111904
1561308556829,,,0.15322890877723694,
1561308556834,0.2298433631658554,8.398859977722168,,65.82036103125682
1561308556849,,,,63.765034166594944
1561308556899,0.5650315880775452,,-0.8427590131759644,327.94940562160684
1561308556900,,7.891288757324219,,
1561308556918,,,,328.34583663122356
1561308556954,0.6512228846549988,9.289502143859863,-0.09576806426048279,21.637933422668254
1561308556992,,,,22.219360105954763
1561308557026,,,-0.15322890877723694,17.387998475789573
1561308557027,0.6799532771110535,11.310209274291992,,
1561308557059,,,,18.723493411371123
1561308557094,0.8523358106613159,13.0914945602417,0.6512228846549988,72.20488035792624
1561308557124,,,,72.58017193206177
1561308557179,2.365471363067627,8.216899871826172,0.2777273952960968,51.15748167580267
1561308557200,,,,51.464881169588296
1561308557234,,,0.7469909191131592,
1561308557235,1.4460978507995605,9.605537414550781,,67.58384074287324
1561308557264,,,,67.38581989845625
1561308557305,,,0.2106897532939911,
1561308557306,0.7757213711738586,8.111555099487305,,50.59042571052987
1561308557341,,,,51.21141967967827
1561308557387,1.0630255937576294,7.95832633972168,-0.22026655077934265,22.92170504321257
1561308557420,,,,21.938290991419592
1561308557446,,,-0.38307225704193115,11.02908467454489
1561308557447,1.0055646896362305,8.810662269592285,,
1561308557488,,,,11.902895534500374
1561308557524,1.0247182846069336,11.923124313354492,0.5841852426528931,66.47982945599989
1561308557556,,,,67.47533635771845
1561308557590,,,-0.5650315880775452,
1561308557592,0.8906430602073669,11.769895553588867,,359.26414572778725
1561308557621,,,,1.1891173649224243
1561308557654,0.7948749661445618,10.5344877243042,3.6296098232269287,127.60555558389683
1561308557686,,,,127.13107600263436
1561308557724,1.1971008777618408,8.973467826843262,1.1875240802764893,89.69657135060038
1561308557757,,,,89.15657659481917
1561308557794,0.181959331035614,10.687716484069824,0.19153612852096558,80.02110295727869
1561308557824,,,,80.04276831732602
1561308557864,1.3407529592514038,,1.656787633895874,102.62249261898523
1561308557865,,7.029376029968262,,
1561308557895,,,,101.00170921950871
1561308557942,,,-1.3024457693099976,
1561308557944,0.4884171485900879,8.121131896972656,,313.03631253119306
1561308557978,,,,311.0977682409601
1561308558004,,,0.26815059781074524,
1561308558005,,,,46.31664657325871
1561308558021,1.3407529592514038,9.346963882446289,,
1561308558046,,,,45.16250852806661
1561308558076,,,0.009576806798577309,30.174764885119146
1561308558077,0.6607996821403503,11.731588363647461,,
1561308558110,,,,30.051510706451722
1561308558144,0.038307227194309235,11.674127578735352,0.10534487664699554,98.16134773240219
1561308558185,,,,98.53983583506931
1561308558224,2.38462495803833,9.59596061706543,1.359906554222107,73.84598357018353
1561308558258,,,,71.33800640884658
1561308558295,,,0.3734954595565796,
1561308558296,0.6224924325942993,9.509769439697266,,60.56992631437629
1561308558314,,,,61.30663051825388
1561308558357,1.2545616626739502,6.9240312576293945,0.1628057211637497,40.919557449614274
1561308558386,,,,40.48025675767195
1561308558424,0.7469909191131592,8.034940719604492,-0.7374141216278076,339.3559803374264
1561308558454,,,,339.57587144756576
1561308558493,,,-0.33518823981285095,15.730729913314121
1561308558494,1.4460978507995605,9.854534149169922,,
1561308558524,,,,15.481074546319121
1561308558570,0.8140285611152649,11.951854705810547,0.2585737705230713,46.649683182093895
1561308558594,,,,45.55283334856534
1561308558635,0.5363011956214905,14.144943237304688,2.7485435009002686,113.01896944147174
1561308558671,,,,111.32379162155544
1561308558704,0.2968810200691223,8.810662269592285,1.37906014919281,108.78691592984012
1561308558739,,,,106.6158446795032
1561308558777,0.35434186458587646,9.730035781860352,1.0247182846069336,97.72942022966896
1561308558810,,,,94.66610087748575
1561308558844,,,0.689530074596405,
1561308558845,0.5554547905921936,,,74.9418396111879
1561308558846,,7.785943984985352,,
1561308558876,,,,71.5719677086762
1561308558915,,,-0.8140285611152649,
1561308558917,0.5937620401382446,7.987056732177734,,315.56584918464523
1561308558944,,,,313.1550656151975
1561308558992,0.047884032130241394,9.481039047241211,-0.545877993106842,284.151978701059
1561308559024,,,,282.1877870504926
1561308559057,0.9097966551780701,10.649409294128418,0.019153613597154617,12.506856719406017
1561308559096,,,,11.751927009501912
1561308559133,0.8619126081466675,11.78904914855957,0.20111294090747833,24.4378721427193
1561308559167,,,,24.75366252390029
1561308559200,0.1628057211637497,10.5344877243042,1.2449848651885986,98.92215567386074
1561308559233,,,,99.2991206443429
1561308559266,2.82515811920166,7.891288757324219,1.867477297782898,68.63468583724722
1561308559297,,,,64.64192117299785
1561308559336,0.28730419278144836,10.046070098876953,0.7086837291717529,79.00650567682999
1561308559374,,,,75.66066921000754
1561308559407,,,0.6320692300796509,
1561308559408,0.7565677165985107,6.732495307922363,,50.26173993219595
1561308559441,,,,46.63433916212347
1561308559474,1.7621324062347412,8.418013572692871,-0.1149216815829277,354.079386694871
1561308559507,,,,352.30348158849387
1561308559544,,,-1.6759412288665771,
1561308559545,0.545877993106842,11.310209274291992,,275.07146759576966
1561308559584,,,,275.4413633204609
1561308559622,1.0630255937576294,,0.14365209639072418,7.3263989981196005
1561308559623,,11.875240325927734,,
1561308559657,,,,8.067836523092012
1561308559690,,,-0.2968810200691223,
1561308559692,,,,343.9752406882006
1561308559693,1.3024457693099976,11.291055679321289,,
1561308559725,,,,345.4526191434108
1561308559769,-0.019153613597154617,9.710882186889648,0.9002198576927185,99.06879300515175
1561308559789,,,,101.91560219083476
1561308559829,0.545877993106842,,1.436521053314209,85.59282294252745
1561308559830,,9.730035781860352,,
1561308559859,,,,85.6080269436199
1561308559897,1.139639973640442,8.111555099487305,0.7086837291717529,44.84320401455767
1561308559925,,,,47.19696574971954
1561308559964,1.0055646896362305,7.862558364868164,-0.3256114423274994,342.77477517741556
1561308559997,,,,341.8478894787409
1561308560039,,,0.4213795065879822,
1561308560040,0.8619126081466675,8.772355079650879,,35.11816893842928
1561308560067,,,,36.142017710108746
1561308560120,1.2832920551300049,10.5344877243042,0.6224924325942993,37.474874485123394
1561308560139,,,,37.614114721543274
1561308560189,,,-0.727837324142456,
1561308560190,0.9768342971801758,13.043610572814941,,323.8208192306172
1561308560216,,,,327.3395448608056
1561308560258,,,4.2329487800598145,
1561308560259,0.8044517636299133,12.516886711120605,,110.53272594207374
1561308560275,,,,112.88535728092796
1561308560315,1.3982137441635132,8.868123054504395,0.8331822156906128,51.51025411624471
1561308560344,,,,58.590277945718185
1561308560388,,,0.4213795065879822,
1561308560389,,,,44.017990804320505
1561308560390,1.1109095811843872,7.709329605102539,,
1561308560414,,,,50.548095613148746
1561308560457,0.6607996821403503,7.613561630249023,-0.028730420395731926,16.599664871975847
1561308560493,,,,17.94088009098732
1561308560526,,,-0.5171475410461426,329.4846340715398
1561308560527,0.5746083855628967,8.9064302444458,,
1561308560561,,,,331.97973461874403
1561308560594,,,0.181959331035614,40.87715905034139
1561308560595,1.6855180263519287,,,
1561308560596,,9.519346237182617,,
1561308560626,,,,44.39815230333426
1561308560664,,,0.2585737705230713,
1561308560665,1.091755986213684,12.36365795135498,,42.86968915577421
1561308560694,,,,48.76173818290738
1561308560742,0.871489405632019,12.047622680664063,2.030282974243164,114.43854229818885
1561308560774,,,,118.37553846786506
1561308560808,0.181959331035614,10.132261276245117,1.091755986213684,122.25826878458554
1561308560842,,,,124.04955419631307
1561308560879,0.7948749661445618,9.251194953918457,1.647210717201233,120.31975181510921
1561308560905,,,,118.86665638994566
1561308560944,,,0.19153612852096558,56.05523957488958
1561308560945,0.5554547905921936,8.801085472106934,,
1561308560976,,,,53.827040622334664
1561308561018,0.9385270476341248,7.508216381072998,0.24899697303771973,58.55272556566143
1561308561055,,,,60.560398200484144
1561308561094,0.38307225704193115,,-0.6991068720817566,319.47402537111856
1561308561095,,8.676587104797363,,
1561308561118,,,,325.8666521323328
1561308561161,0.9385270476341248,10.879252433776855,-0.038307227194309235,39.4339673994744
1561308561196,,,,39.37972886727533
1561308561228,1.3120225667953491,,-0.038307227194309235,41.38659553977595
1561308561229,,13.24472427368164,,
1561308561263,,,,43.765075729544094
1561308561299,,,2.432508945465088,
1561308561301,0.028730420395731926,12.890381813049316,,140.25039407736816
1561308561333,,,,141.80269117003695
1561308561365,,,0.4405331015586853,
1561308561370,0.9002198576927185,9.481039047241211,,77.74416377480657
1561308561402,,,,75.95454492923653
1561308561439,0.181959331035614,8.283937454223633,0.4596867263317108,113.01606661107448
1561308561465,,,,112.6196970731603
1561308561508,0.9097966551780701,6.435614109039307,-0.07661445438861847,44.3067370514828
1561308561542,,,,44.74712032840853
1561308561576,,,-0.13407529890537262,
1561308561577,1.292868971824646,8.523358345031738,,44.38608677416539
1561308561611,,,,45.156682376704566
1561308561645,0.6991068720817566,10.630255699157715,-1.072602391242981,337.3443786362836
1561308561681,,,,338.16905567667095
1561308561721,,,-0.15322890877723694,
1561308561722,1.091755986213684,11.319786071777344,,38.13044628694496
1561308561767,,,,37.0807794002028
1561308561785,,,3.4189200401306152,141.72143923967047
1561308561786,0.15322890877723694,12.85207462310791,,
1561308561817,,,,142.1152679472134
1561308561867,0.019153613597154617,9.318233489990234,0.9672574996948242,135.64686023715788
1561308561885,,,,136.35493228803477
1561308561927,0.4884171485900879,,0.7852981686592102,108.75178143674958
1561308561928,,8.676587104797363,,
1561308561959,,,,106.60497101834454
1561308561994,0.4118026793003082,,0.3926490843296051,88.66185233285677
1561308561995,,8.638279914855957,,
1561308562028,,,,86.23075578081745
1561308562063,,,-0.19153612852096558,
1561308562064,0.7469909191131592,7.996633529663086,,26.074001269713563
1561308562099,,,,26.927107264973756
1561308562141,,,0.2298433631658554,
1561308562142,0.5841852426528931,9.892841339111328,,64.00763565572458
1561308562164,,,,65.59716410955912
1561308562208,,,0.35434186458587646,
1561308562209,0.5554547905921936,11.319786071777344,,76.52791881949156
1561308562244,,,,77.92476080665085
1561308562277,1.37906014919281,12.612654685974121,1.599326729774475,103.69693601694155
1561308562314,,,,104.75431760235125
1561308562351,3.1028854846954346,8.40843677520752,2.1164743900299072,110.89334626987207
1561308562378,,,,110.527111526576
1561308562413,,,0.3926490843296051,
1561308562414,0.47884035110473633,10.189722061157227,,85.78533865447343
1561308562444,,,,87.70309184887293
1561308562486,,,0.5363011956214905,
1561308562487,0.6512228846549988,7.259219646453857,,92.41778018763597
1561308562515,,,,93.80777149505775
1561308562554,0.545877993106842,7.7763671875,-0.545877993106842,358.9653251650426
1561308562587,,,,3.2507151970160066
1561308562630,-0.019153613597154617,11.070788383483887,-0.20111294090747833,311.1965464367368
1561308562655,,,,313.98145703306653
1561308562694,1.6759412288665771,10.65898609161377,0.9576807022094727,93.46766905552613
1561308562724,,,,94.38686225364813
1561308562763,,,0.17238251864910126,
1561308562764,1.4652514457702637,11.923124313354492,,66.8652160497287
1561308562798,,,,62.95495324046391
1561308562839,0.23942017555236816,,2.5091233253479004,141.74615086408758
1561308562840,,11.128249168395996,,
1561308562867,,,,139.08137988016378
1561308562905,1.0534487962722778,9.433155059814453,1.9536685943603516,119.62574995392254
1561308562940,,,,118.5346545547697
1561308562974,,,0.7086837291717529,104.71612318451253
1561308562975,0.5363011956214905,8.02536392211914,,
1561308563006,,,,103.39549244811224
1561308563044,1.1013327836990356,8.14028549194336,0.3447650372982025,69.48020861498145
1561308563074,,,,67.8522057055522
1561308563113,1.158793568611145,,0.7086837291717529,83.18694344890378
1561308563114,,8.552088737487793,,
1561308563144,,,,82.45101105640242
1561308563190,0.4692635238170624,10.122684478759766,-0.545877993106842,353.06256021143196
1561308563214,,,,353.54338888041474
1561308563254,0.9289502501487732,11.827356338500977,0.24899697303771973,61.91611561865079
1561308563290,,,,62.11252453842371
1561308563326,-0.43095630407333374,11.597513198852539,0.23942017555236816,193.86495115708942
1561308563355,,,,194.80471688499142
1561308563394,2.911349296569824,7.2113356590271,1.7621324062347412,98.8408832529268
1561308563430,,,,98.55296345865406
1561308563463,,,0.6033388376235962,89.33259739991956
1561308563464,0.7086837291717529,9.988609313964844,,
1561308563494,,,,87.62420316395924
1561308563536,1.139639973640442,8.006210327148438,1.5705963373184204,107.53335082090018
1561308563564,,,,106.4231308920713
1561308563604,1.0821791887283325,7.4316020011901855,-0.06703764945268631,43.11426798466857
1561308563635,,,,41.36249521728956
1561308563673,,,-0.871489405632019,
1561308563674,0.9959878921508789,9.911994934082031,,358.83328597572034
1561308563704,,,,357.5240720072394
1561308563743,,,1.1779472827911377,
1561308563745,0.6607996821403503,12.267889976501465,,104.4552919204881
1561308563774,,,,102.93573192451117
1561308563813,,,1.3694833517074585,
1561308563814,1.1300631761550903,11.635820388793945,,94.75206563837952
1561308563844,,,,91.68661526717528
1561308563889,-0.5937620401382446,11.070788383483887,0.9864110946655273,157.27914850847714
1561308563924,,,,154.01203680202826
1561308563961,,,1.1683704853057861,
1561308563962,-0.047884032130241394,10.247182846069336,,127.26643669160569
1561308563999,,,,123.50763332718594
1561308564033,,,0.7086837291717529,
1561308564034,0.7469909191131592,7.824251174926758,,76.40555598051083
1561308564055,,,,72.44433996003772
1561308564094,0.5171475410461426,8.322244644165039,-0.3064578175544739,351.9761165979907
1561308564126,,,,349.333786200585
1561308564163,,,0.2777273952960968,
1561308564164,1.2545616626739502,8.159439086914063,,37.71852782338527
1561308564196,,,,34.980093249262836
1561308564236,,,0.5171475410461426,51.14390667482729
1561308564237,0.9193734526634216,10.582371711730957,,
1561308564264,,,,50.63487999674294
1561308564307,,,2.451662540435791,
1561308564309,1.3215993642807007,12.200851440429688,,89.20024199418305
1561308564354,,,,88.50380175546269
1561308564388,0.9768342971801758,9.940725326538086,0.3447650372982025,39.51060212196194
1561308564405,,,,40.03231246133504
1561308564459,,,1.599326729774475,
1561308564460,1.072602391242981,10.860098838806152,,81.56611906829227
1561308564477,,,,82.75545307827741
1561308564520,-0.45010992884635925,8.753201484680176,0.019153613597154617,195.34185662169955
1561308564544,,,,194.5742936231519
1561308564590,1.0055646896362305,7.757213592529297,-0.20111294090747833,7.125857387012047
1561308564614,,,,5.112978440494487
1561308564654,1.3024457693099976,8.552088737487793,-0.33518823981285095,1.6016436085965324
1561308564686,,,,359.1629602638541
1561308564724,1.1204863786697388,10.438719749450684,-0.8906430602073669,331.6678937944506
1561308564756,,,,331.30153952284405
1561308564794,1.0534487962722778,11.396400451660156,0.7661445140838623,54.66769689028524
1561308564825,,,,54.171169458381996
1561308564864,,,0.5746083855628967,
1561308564865,0.6703764796257019,12.239158630371094,,56.857923406149496
1561308564895,,,,55.90575746980926
1561308564940,1.292868971824646,8.96389102935791,2.1068975925445557,85.95428338359369
1561308564964,,,,86.78674683963482
1561308565007,0.17238251864910126,10.074800491333008,1.1492167711257935,100.273918412498
1561308565040,,,,100.50298246669269
1561308565074,0.9193734526634216,7.316680431365967,0.6607996821403503,55.989256532412696
1561308565106,,,,55.66521869780894
1561308565145,,,-0.7469909191131592,
1561308565146,0.15322890877723694,8.08282470703125,,287.7517479408442
1561308565175,,,,286.964199808785
1561308565213,,,-0.6607996821403503,
1561308565214,0.20111294090747833,8.925583839416504,,293.61274692801044
1561308565244,,,,294.0733134139336
1561308565290,0.7661445140838623,11.865663528442383,1.1300631761550903,75.91160352992466
1561308565316,,,,80.68218330666593
1561308565360,,,0.9002198576927185,
1561308565361,1.8483237028121948,11.377246856689453,,53.42117029128502
1561308565393,,,,57.40143570935322
1561308565429,,,1.3694833517074585,90.13935202392474
1561308565430,0.7852981686592102,11.511322021484375,,
1561308565454,,,,93.71076231827607
1561308565494,1.3120225667953491,9.251194953918457,1.3120225667953491,83.21285718661483
1561308565524,,,,85.00949063646249
1561308565563,,,0.871489405632019,
1561308565564,0.35434186458587646,6.962338447570801,,102.65805741399345
1561308565594,,,,104.47040712912133
1561308565637,0.5554547905921936,7.939172744750977,0.12449848651885986,43.17956459313393
1561308565664,,,,43.76921823927569
1561308565704,,,0.24899697303771973,
1561308565705,1.800439715385437,8.78193187713623,,47.83160985192421
1561308565738,,,,46.81743945829862
1561308565773,,,-0.2777273952960968,
1561308565774,1.436521053314209,10.984597206115723,,19.304266104044586
1561308565804,,,,22.036071979577457
1561308565844,1.1971008777618408,12.018892288208008,0.6703764796257019,66.30949819847808
1561308565880,,,,67.16821007149963
1561308565919,-0.17238251864910126,,2.671929121017456,134.96490682966714
1561308565920,,11.616666793823242,,
1561308565951,,,,134.75825262613924
1561308566001,,,2.2218191623687744,
1561308566003,1.359906554222107,9.375694274902344,,108.05446693381549
1561308566019,,,,106.68661226949371
1561308566061,-0.038307227194309235,11.243170738220215,1.0438719987869263,126.96243863202676
1561308566095,,,,126.09500460743516
1561308566139,,,0.26815059781074524,51.879299482384226
1561308566140,1.216254472732544,6.57926607131958,,
1561308566156,,,,47.48460209114171
1561308566205,,,0.8427590131759644,
1561308566206,0.8427590131759644,8.255207061767578,,79.88573543811822
1561308566225,,,,78.6784721815618
1561308566263,,,-0.40222588181495667,333.3042192893835
1561308566264,0.33518823981285095,9.797073364257813,,
1561308566296,,,,333.203229819863
1561308566345,,,0.5171475410461426,
1561308566346,0.4405331015586853,11.051634788513184,,78.0624710806967
1561308566364,,,,79.81513177266777
1561308566403,,,1.6280571222305298,
1561308566404,,,,78.80548637936738
1561308566405,2.0015525817871094,11.444284439086914,,
1561308566440,,,,78.99991454428095
1561308566474,1.3024457693099976,11.042057991027832,1.139639973640442,77.00868217479047
1561308566512,,,,79.13636806351946
1561308566555,,,0.8427590131759644,
1561308566557,0.6416460275650024,9.41400146484375,,88.03669877850382
1561308566578,,,,87.26119910014063
1561308566633,0.3447650372982025,7.182605266571045,-0.05746084079146385,19.062366416852115
1561308566649,,,,18.887544309951068
1561308566687,,,0.23942017555236816,
1561308566688,0.9193734526634216,7.814674377441406,,47.958914332769496
1561308566714,,,,48.4896610124145
1561308566774,0.9289502501487732,9.21288776397705,-0.3734954595565796,6.501583219514714
1561308566788,,,,8.262274933289348
1561308566823,,,-0.19153612852096558,
1561308566824,0.9193734526634216,11.099518775939941,,19.228585900493556
1561308566854,,,,21.179412578401525
1561308566893,,,2.63362193107605,
1561308566894,1.0630255937576294,13.072340965270996,,111.92891223107273
1561308566927,,,,112.83172663556502
1561308566965,,,1.235408067703247,
1561308566968,-0.7852981686592102,10.055646896362305,,157.84722900212543
1561308567001,,,,158.41136164643348
1561308567035,-0.028730420395731926,10.304644584655762,1.6855180263519287,131.34687366404134
1561308567064,,,,132.6947295344733
1561308567103,,,0.6033388376235962,
1561308567105,,,,150.558378968968
1561308567106,-0.26815059781074524,9.174580574035645,,
1561308567140,,,,150.27463925046732
1561308567175,,,0.06703764945268631,
1561308567176,0.10534487664699554,7.287950038909912,,67.55039330650766
1561308567212,,,,64.5645351297016
1561308567252,,,0.028730420395731926,
1561308567253,0.6224924325942993,8.465897560119629,,36.53489702135704
1561308567285,,,,34.051491465559195
1561308567314,,,,53.35631081492659
1561308567315,0.9959878921508789,10.381258964538574,0.35434186458587646,
1561308567364,,,,52.51900133966927
1561308567393,0.1628057211637497,12.181697845458984,0.43095630407333374,99.84989343863441
1561308567416,,,,99.01058613304491
1561308567464,,,3.907337188720703,118.69934407603705
1561308567465,0.7182605266571045,14.106636047363281,,
1561308567491,,,,118.25594185549815
1561308567523,,,1.216254472732544,
1561308567524,1.886630892753601,8.02536392211914,,74.1312532510583
1561308567554,,,,71.90646256289921
1561308567594,-0.14365209639072418,9.27034854888916,-0.038307227194309235,220.35548468314698
1561308567626,,,,218.57781866862445
1561308567664,0.9768342971801758,6.866570472717285,1.4652514457702637,92.85740531356385
1561308567697,,,,90.99401359476849
1561308567746,0.33518823981285095,8.20732307434082,-0.13407529890537262,0.35887921652937393
1561308567766,,,,359.1223809360563
1561308567812,0.5171475410461426,10.5344877243042,-0.4596867263317108,338.13013213613834
1561308567846,,,,337.1219040070906
1561308567880,0.4884171485900879,11.884817123413086,1.0630255937576294,89.99875941004922
1561308567914,,,,87.49032462603782
1561308567947,0.2585737705230713,14.068328857421875,4.587290287017822,116.92704659020211
1561308567974,,,,114.16773895797618
1561308568018,0.6224924325942993,8.197746276855469,0.8906430602073669,75.75698170749388
1561308568044,,,,72.28057251430835
1561308568090,0.3064578175544739,,1.580173134803772,97.34600756061025
1561308568091,,10.237606048583984,,
1561308568114,,,,94.89646266762276
1561308568156,0.5554547905921936,8.121131896972656,1.1013327836990356,78.95191880498328
1561308568194,,,,77.25799090968508
1561308568229,0.23942017555236816,8.418013572692871,-0.3064578175544739,313.68421403057675
1561308568255,,,,309.5967726991472
1561308568302,0.5841852426528931,9.030928611755371,0.871489405632019,64.12592770196005
1561308568324,,,,65.56742546591289
1561308568366,,,0.22026655077934265,157.698686048056
1561308568367,-0.4213795065879822,12.047622680664063,,
1561308568395,,,,161.2571599641193
1561308568438,1.6855180263519287,12.114660263061523,3.19865345954895,83.68854571136035
1561308568464,,,,85.2665994473893
1561308568507,,,1.599326729774475,
1561308568509,2.6431987285614014,7.489062786102295,,58.094611117650345
1561308568549,,,,60.33862195813384
1561308568587,,,0.2968810200691223,
1561308568588,,,,86.38056915007252
1561308568589,0.08619125932455063,9.739612579345703,,
1561308568604,,,,85.8557237538704
1561308568644,,,1.6950948238372803,
1561308568645,1.1779472827911377,7.967903137207031,,78.18590625937713
1561308568680,,,,77.6169036901909
1561308568716,,,-0.507570743560791,
1561308568718,0.2106897532939911,8.734047889709473,,299.155534231935
1561308568744,,,,298.39918640400447
1561308568792,,,0.2777273952960968,
1561308568793,0.7086837291717529,9.701305389404297,,32.47321916347687
1561308568821,,,,32.49707359915311
1561308568857,1.3886369466781616,9.442731857299805,-0.14365209639072418,3.411794109533389
1561308568903,,,,2.3870128035887888
1561308568928,,,-0.019153613597154617,
1561308568929,,,,6.6033146183338545
1561308568930,0.6512228846549988,11.894393920898438,,
1561308568966,,,,5.710529065977255
1561308569007,-0.33518823981285095,13.10107135772705,4.079719543457031,116.87677639791082
1561308569028,,,,116.45622799033481
1561308569077,0.2298433631658554,9.682151794433594,0.9289502501487732,86.88891280923986
1561308569107,,,,84.33881387129145
1561308569141,,,0.8523358106613159,78.86213596834341
1561308569142,0.31603461503982544,7.977479934692383,,
1561308569181,,,,79.45296782211705
1561308569212,0.5746083855628967,7.15387487411499,0.2777273952960968,31.0111113037035
1561308569244,,,,27.674719280955856
1561308569277,0.47884035110473633,8.379706382751465,-0.28730419278144836,325.23807665320567
1561308569304,,,,327.13701950663096
1561308569351,,,0.2585737705230713,
1561308569352,0.7565677165985107,10.122684478759766,,21.951362265943658
1561308569376,,,,25.69464914811647
1561308569426,,,-0.028730420395731926,4.103734320807746
1561308569427,1.8387469053268433,12.85207462310791,,
1561308569452,,,,7.814399792617735
1561308569490,-0.31603461503982544,12.229581832885742,1.3503297567367554,117.6422083774375
1561308569517,,,,120.23239369562475
1561308569556,,,1.9057846069335938,80.60203786694495
1561308569557,2.5282769203186035,7.594407558441162,,
1561308569596,,,,80.98017762996437
1561308569626,,,0.38307225704193115,
1561308569627,0.5554547905921936,9.404424667358398,,48.43643676330714
1561308569654,,,,51.980806338734396
1561308569706,,,0.5363011956214905,50.23626674168639
1561308569707,1.0342950820922852,7.287950038909912,,
1561308569744,,,,51.09830491683368
1561308569769,,,-0.6607996821403503,
1561308569771,0.9959878921508789,7.297526836395264,,334.8658754487625
1561308569806,,,,337.47502820227487
1561308569839,0.7565677165985107,11.310209274291992,-0.43095630407333374,344.72136884558546
1561308569865,,,,344.35204514923726
1561308569916,1.1300631761550903,11.942277908325195,0.727837324142456,56.66955361902973
1561308569938,,,,56.69602743225266
1561308569986,,,3.246537446975708,
1561308569989,0.19153612852096558,13.962984085083008,,119.03398236423266
1561308570017,,,,118.51204662861693
1561308570054,,,0.4884171485900879,
1561308570055,0.9193734526634216,8.255207061767578,,51.14702465618342
1561308570080,,,,50.08075357956898
1561308570113,,,1.580173134803772,
1561308570114,0.6320692300796509,10.323798179626465,,95.9075697214056
1561308570148,,,,95.7344927278375
1561308570201,,,0.5841852426528931,
1561308570202,,,,55.32373656006496
1561308570203,0.9576807022094727,7.95832633972168,,
1561308570214,,,,55.35880616635842
1561308570263,1.0438719987869263,7.1921820640563965,-0.6991068720817566,335.69581514990534
1561308570287,,,,336.1775774203703
1561308570340,,,-0.2777273952960968,
1561308570342,0.8906430602073669,8.705317497253418,,357.56050765136683
1561308570373,,,,0.033236560945056226
1561308570400,0.35434186458587646,12.334927558898926,-1.599326729774475,291.17590618687916
1561308570425,,,,291.23735739884177
1561308570463,,,3.313575267791748,
1561308570464,-0.2968810200691223,15.619771957397461,,125.10513261178187
1561308570498,,,,127.1095062652355
1561308570551,,,0.8619126081466675,
1561308570552,1.6855180263519287,,,65.56548569218864
1561308570553,,7.173028469085693,,
1561308570567,,,,66.66432652586025
1561308570605,,,0.4596867263317108,
1561308570607,2.078166961669922,8.092401504516602,,48.76869473057701
1561308570643,,,,48.305519112390925
1561308570687,,,0.2106897532939911,
1561308570688,1.1204863786697388,8.169015884399414,,37.53870601801174
1561308570709,,,,38.3584311712508
1561308570746,0.5171475410461426,8.169015884399414,-0.3447650372982025,345.99980352706706
1561308570782,,,,349.8585709788582
1561308570818,0.5554547905921936,9.155426979064941,-0.6512228846549988,331.825012051023
1561308570845,,,,332.6240553914553
1561308570887,,,0.047884032130241394,
1561308570888,0.038307227194309235,11.626243591308594,,76.90724703542656
1561308570914,,,,76.69568875607462
1561308570960,,,0.7086837291717529,
1561308570962,1.3503297567367554,12.42111873626709,,60.429354191068285
1561308570994,,,,60.424456945433406
1561308571028,-0.3734954595565796,10.639832496643066,0.689530074596405,146.14201963277276
1561308571066,,,,145.49255060497458
1561308571113,0.4405331015586853,10.02691650390625,1.4748282432556152,107.81724080356258
1561308571129,,,,105.18272755766196
1561308571171,0.4884171485900879,8.255207061767578,0.9385270476341248,93.00986879621684
1561308571212,,,,91.85763637380319
1561308571251,0.363918662071228,7.785943984985352,-0.13407529890537262,0.08344836979313186
1561308571269,,,,359.6093534135583
1561308571310,0.4596867263317108,8.791508674621582,-0.20111294090747833,355.94879367589107
1561308571335,,,,357.0240946894751
1561308571396,0.3734954595565796,11.463438034057617,0.019153613597154617,24.719895776191038
1561308571413,,,,27.592000567465107
1561308571454,1.1204863786697388,13.187262535095215,1.6089035272598267,88.56056745765466
1561308571479,,,,91.20194504367117
1561308571514,,,0.047884032130241394,
1561308571515,0.7086837291717529,8.734047889709473,,32.900082080940535
1561308571553,,,,35.39907071332982
1561308571589,1.292868971824646,9.136273384094238,0.8140285611152649,71.03090744338442
1561308571621,,,,70.78318331237722
1561308571657,0.17238251864910126,9.385271072387695,0.6991068720817566,108.9763170755246
1561308571685,,,,108.04429678214132
1561308571725,,,0.10534487664699554,
1561308571726,0.871489405632019,,,38.71465627231828
1561308571727,,7.977479934692383,,
1561308571756,,,,39.14100009540505
1561308571799,1.1109095811843872,8.992621421813965,-0.20111294090747833,20.16359610918596
1561308571835,,,,20.044199279852307
1561308571865,0.7661445140838623,11.338939666748047,-0.7374141216278076,341.0848822163696
1561308571894,,,,341.4284253636956
1561308571938,0.9576807022094727,11.942277908325195,1.216254472732544,88.29861604260634
1561308571964,,,,86.35278394052892
1561308572011,-0.22026655077934265,11.951854705810547,2.892195701599121,131.69051414156303
1561308572045,,,,129.44626424445858
1561308572078,0.7086837291717529,8.40843677520752,1.3694833517074585,98.12737437147058
1561308572116,,,,97.28582676383331
1561308572147,0.6512228846549988,9.59596061706543,1.3694833517074585,97.32089978522129
1561308572191,,,,96.43057096653183
1561308572215,0.6607996821403503,7.95832633972168,0.6129156351089478,70.99222808211465
1561308572256,,,,69.28560969533862
1561308572289,0.6033388376235962,7.661445617675781,-0.28730419278144836,352.12183014619643
1561308572327,,,,350.48807365616517
1561308572357,,,-0.009576806798577309,16.964268907607618
1561308572358,0.4596867263317108,10.448296546936035,,
1561308572394,,,,18.305624145497006
1561308572424,0.6799532771110535,11.54005241394043,0.45010992884635925,56.47339741625609
1561308572468,,,,58.3954399694544
1561308572509,0.6512228846549988,12.02846908569336,-0.038307227194309235,18.364575508223425
1561308572538,,,,20.024369533144466
1561308572563,,,-0.038307227194309235,
1561308572564,0.4692635238170624,9.567230224609375,,18.501904999222972
1561308572604,,,,20.061964601883517
1561308572635,0.5267243981361389,10.90798282623291,0.5650315880775452,75.56496459935732
1561308572674,,,,76.10883207239795
1561308572703,,,0.9289502501487732,
1561308572704,0.7757213711738586,8.006210327148438,,85.60883290594194
1561308572744,,,,84.70011038781763
1561308572773,,,0.047884032130241394,31.406695369863087
1561308572774,0.4118026793003082,7.90086555480957,,
1561308572814,,,,32.54116930043472
1561308572843,,,0.26815059781074524,
1561308572844,0.9002198576927185,8.513781547546387,,46.64578655917245
1561308572888,,,,48.676736478686564
1561308572914,0.3256114423274994,11.329362869262695,-0.4118026793003082,332.5707816234765
1561308572955,,,,333.5403013629504
1561308572988,1.0247182846069336,11.338939666748047,0.4213795065879822,55.314604597144694
1561308573024,,,,53.84559141612044
1561308573054,-0.7852981686592102,11.942277908325195,2.5282769203186035,142.19705263233513
1561308573094,,,,139.9458769234123
1561308573124,,,1.37906014919281,
1561308573125,0.2106897532939911,8.810662269592285,,114.64437004882717
1561308573187,,,,112.50716970658436
1561308573203,0.7469909191131592,8.96389102935791,1.1971008777618408,90.35170943540965
1561308573243,,,,85.73194706573145
1561308573264,0.7374141216278076,,1.1013327836990356,83.99589739382179
1561308573265,,8.341399192810059,,
1561308573317,,,,80.22084500936654
1561308573334,0.6512228846549988,7.967903137207031,0.1628057211637497,29.161881982152124
1561308573374,,,,26.501123734365706
1561308573408,0.363918662071228,10.888829231262207,-0.33518823981285095,324.83843886977365
1561308573444,,,,325.84759248945386
1561308573477,,,1.292868971824646,
1561308573478,0.9672574996948242,11.884817123413086,,73.47405927930885
1561308573514,,,,75.79296997423069
1561308573547,0.9864110946655273,12.928689002990723,1.8483237028121948,86.60472229825399
1561308573600,,,,88.5949028186123
1561308573621,2.4612393379211426,7.747636795043945,0.7852981686592102,53.1662539710818
1561308573655,,,,56.41933305388085
1561308573687,-0.06703764945268631,,0.4596867263317108,119.19404101724274
1561308573688,,10.505757331848145,,
1561308573725,,,,119.30178042121048
1561308573762,0.06703764945268631,6.703764915466309,0.2298433631658554,94.55608702052433
1561308573797,,,,95.9499373848272
1561308573839,,,0.7086837291717529,
1561308573840,0.7565677165985107,7.086836814880371,,73.00037199999008
1561308573880,,,,72.40546252328198
1561308573900,0.5267243981361389,,-0.6129156351089478,325.7726106727455
1561308573901,,9.279925346374512,,
1561308573937,,,,324.2645902813713
1561308573971,0.9002198576927185,12.066776275634766,0.9193734526634216,71.03141970757218
1561308574006,,,,72.34487874534398
1561308574042,,,1.1779472827911377,
1561308574043,1.9728221893310547,12.267889976501465,,62.943389730199044
1561308574083,,,,61.37536271187173
1561308574118,,,2.403778553009033,
1561308574119,,,,122.9545655893333
1561308574120,-0.09576806426048279,11.27190113067627,,
1561308574146,,,,120.16429670959971
1561308574174,0.019153613597154617,9.078812599182129,1.4269442558288574,114.057492874583
1561308574217,,,,111.88444769957596
1561308574257,0.7948749661445618,7.5848307609558105,1.359906554222107,87.76349121170335
1561308574287,,,,84.95642006661149
1561308574328,0.4405331015586853,7.862558364868164,0.2298433631658554,38.49203991670004
1561308574355,,,,35.69503305535022
1561308574387,0.6224924325942993,8.580819129943848,0.15322890877723694,21.19979898552674
1561308574424,,,,20.19068634698158
1561308574461,0.9864110946655273,9.998186111450195,0.9289502501487732,56.53515940182592
1561308574510,,,,58.52436662022751
1561308574527,0.20111294090747833,12.02846908569336,1.091755986213684,92.79649368654566
1561308574571,,,,94.80960998213686
1561308574594,1.2066776752471924,11.616666793823242,3.44765043258667,102.27320357501992
1561308574649,,,,103.38910622123831
1561308574666,2.346317768096924,9.41400146484375,1.7621324062347412,70.01228035132544
1561308574704,,,,71.52662891296563
1561308574740,0.38307225704193115,10.65898609161377,0.9481038451194763,87.332724841129
1561308574784,,,,87.5851549724743
1561308574810,,,0.545877993106842,
1561308574813,0.6703764796257019,6.742072105407715,,60.018088010574274
1561308574857,,,,60.06375465536502
1561308574900,,,0.7565677165985107,
1561308574901,0.5746083855628967,8.111555099487305,,73.70196903153385
1561308574917,,,,72.41966931675563
1561308574961,1.2641384601593018,9.193734169006348,0.3734954595565796,34.016592613995044
1561308574986,,,,38.81027209050927
1561308575024,0.6033388376235962,11.903970718383789,0.9002198576927185,78.26987660503329
1561308575067,,,,80.63316303899273
1561308575085,,,2.585737943649292,
1561308575086,1.292868971824646,13.0914945602417,,96.48692685737359
1561308575137,,,,95.68099185606877
1561308575178,,,2.279279947280884,
1561308575179,0.12449848651885986,10.821791648864746,,116.552574638767
1561308575195,,,,114.85775881887673
1561308575242,,,1.8579005002975464,107.3073330310753
1561308575243,0.363918662071228,9.279925346374512,,
1561308575266,,,,106.6295596993566
1561308575317,,,0.14365209639072418,
1561308575318,0.6607996821403503,7.249642848968506,,31.053885363380687
1561308575340,,,,31.81719998426462
1561308575373,,,0.2585737705230713,
1561308575374,0.45010992884635925,8.686163902282715,,49.13518902106159
1561308575408,,,,50.04494972793975
1561308575449,0.4692635238170624,9.66299819946289,-0.009576806798577309,17.06669613194839
1561308575479,,,,18.029985031352
1561308575518,,,1.7525556087493896,
1561308575519,1.7812861204147339,11.27190113067627,,75.77613355792664
1561308575547,,,,75.32378378957503
1561308575594,,,2.279279947280884,
1561308575595,1.886630892753601,12.7946138381958,,81.8908672425697
1561308575620,,,,84.51765554451907
1561308575656,1.580173134803772,9.806650161743164,1.6089035272598267,79.5342675638077
1561308575690,,,,81.32505437172586
1561308575727,1.6280571222305298,9.892841339111328,1.7717092037200928,84.00875864002893
1561308575766,,,,85.8877983222128
1561308575803,,,0.7469909191131592,
1561308575804,0.5746083855628967,,,84.28487586741585
1561308575805,,7.354987621307373,,
1561308575825,,,,85.62818283186061
1561308575869,,,0.8331822156906128,
1561308575870,0.9481038451194763,7.134721279144287,,77.14474637324628
1561308575894,,,,77.83354363028536
1561308575945,,,0.2298433631658554,47.377863309887346
1561308575946,0.7661445140838623,8.983044624328613,,
1561308575964,,,,50.12410137513643
1561308576005,0.9864110946655273,11.080365180969238,0.3926490843296051,55.68845841645992
1561308576047,,,,55.98735773982344
1561308576087,1.0055646896362305,11.070788383483887,0.05746084079146385,36.27225917229714
1561308576106,,,,38.45780700857995
1561308576143,,,3.045424461364746,
1561308576144,-0.33518823981285095,11.41555404663086,,136.69875035047488
1561308576174,,,,135.71808544982278
1561308576214,0.1628057211637497,9.433155059814453,1.9345149993896484,124.29152047784996
1561308576250,,,,123.31556840772515
1561308576286,0.6512228846549988,8.676587104797363,1.158793568611145,98.2769418539155
1561308576314,,,,97.02162138635885
1561308576356,0.6991068720817566,8.283937454223633,1.0630255937576294,93.13622729586211
1561308576388,,,,92.75680345727869
1561308576425,0.43095630407333374,8.015787124633789,0.727837324142456,93.10059419896214
1561308576458,,,,94.1885203903401
1561308576498,0.689530074596405,,0.1628057211637497,45.71270758646784
1561308576499,,9.509769439697266,,
1561308576530,,,,46.01570843842791
1561308576579,,,0.6799532771110535,
1561308576584,,,,123.05334378511003
1561308576585,-0.009576806798577309,12.430695533752441,,
1561308576599,,,,124.76030368134462
1561308576655,1.2832920551300049,12.737153053283691,3.3039982318878174,112.30539225812385
1561308576672,,,,112.96832358877612
1561308576737,1.9823989868164063,8.53293514251709,0.14365209639072418,45.51206053431497
1561308576773,,,0.4884171485900879,
1561308576774,-0.3447650372982025,10.572794914245605,,161.29486260833775
1561308576806,,,,163.15644432700307
1561308576843,,,0.2585737705230713,
1561308576844,0.10534487664699554,6.358999729156494,,107.01736418005157
1561308576875,,,,107.90089696051692
1561308576913,,,-0.33518823981285095,
1561308576914,0.6607996821403503,7.757213592529297,,12.229137812658735
1561308576944,,,,13.615338365091134
1561308576989,1.015141487121582,9.921571731567383,0.6033388376235962,75.82727801443167
1561308577014,,,,74.87462371956582
1561308577054,,,1.7621324062347412,110.6259375336769
1561308577055,0.8236053586006165,11.903970718383789,,
1561308577091,,,,111.05384888517818
1561308577123,,,1.5705963373184204,
1561308577124,1.5418659448623657,11.473014831542969,,93.80777149505775
1561308577154,,,,92.92643120531596
1561308577194,0.009576806798577309,10.678139686584473,1.4173674583435059,132.104150397699
1561308577225,,,,131.2163487490024
1561308577263,,,1.6663644313812256,
1561308577265,-0.2106897532939911,9.481039047241211,,139.38961265702812
1561308577294,,,,136.9924348244071
1561308577339,,,1.0342950820922852,
1561308577340,0.6129156351089478,8.015787124633789,,100.90875034490483
1561308577364,,,,99.3621018186796
1561308577404,0.8331822156906128,7.738059997558594,0.4405331015586853,66.23980977837647
1561308577439,,,,62.62135997121129
1561308577474,0.08619125932455063,9.241618156433105,0.009576806798577309,35.55638704538808
1561308577510,,,,34.36616852590544
1561308577544,1.216254472732544,10.409989356994629,0.9193734526634216,72.26956224936623
1561308577580,,,,73.1042864980227
1561308577615,0.5171475410461426,12.401965141296387,-0.15322890877723694,12.691868614775103
1561308577651,,,,13.380226178386408
1561308577688,0.047884032130241394,12.717999458312988,1.8770540952682495,123.84777674785255
1561308577728,,,,125.13570453850684
1561308577766,,,1.1779472827911377,
1561308577767,1.1779472827911377,8.245630264282227,,86.37821956499806
1561308577788,,,,89.56892194520196
1561308577826,-0.4596867263317108,9.346963882446289,0.2585737705230713,183.58181449369
1561308577866,,,,185.3028992211282
1561308577900,,,0.4884171485900879,93.94189591978932
1561308577901,0.35434186458587646,7.010222434997559,,
1561308577926,,,,94.47304558059534
1561308577969,0.689530074596405,7.795520782470703,0.09576806426048279,47.21836131729458
1561308578005,,,,46.794930569888834
1561308578039,0.5841852426528931,10.457873344421387,-0.26815059781074524,10.99893792709571
1561308578066,,,,12.329426334015636
1561308578105,0.9385270476341248,11.233593940734863,1.5322890281677246,103.67392510962782
1561308578144,,,,104.53258234113596
1561308578182,0.8331822156906128,12.536040306091309,0.9193734526634216,90.64546221123351
1561308578220,,,,89.06404119194383
1561308578258,,,1.139639973640442,
1561308578259,-0.019153613597154617,10.141838073730469,,131.15636602771136
1561308578276,,,,129.44141481014788
1561308578316,0.6033388376235962,,1.8387469053268433,115.64536159244923
1561308578317,,9.797073364257813,,
1561308578362,,,,113.13008978907868
1561308578399,,,0.5937620401382446,
1561308578400,0.5937620401382446,7.489062786102295,,82.63166272976014
1561308578416,,,,81.2948785959727
1561308578455,,,-0.05746084079146385,
1561308578456,0.5746083855628967,7.814674377441406,,25.77081258755129
1561308578497,,,,25.61224974596945
1561308578534,,,-0.2106897532939911,
1561308578535,0.3447650372982025,9.117119789123535,,357.80247948243243
1561308578576,,,,356.7709928517136
1561308578617,1.3120225667953491,10.371682167053223,0.5650315880775452,58.81639818838062
1561308578636,,,,59.4847936703689
1561308578666,,,0.3256114423274994,56.49278149312062
1561308578667,0.727837324142456,11.999738693237305,,
1561308578729,,,,59.594506999006796
1561308578745,1.742978811264038,10.103530883789063,1.0247182846069336,74.40245957243201
1561308578777,,,,75.21019774367767
1561308578828,1.3311761617660522,,1.0630255937576294,81.46223189101636
1561308578829,,10.189722061157227,,
1561308578846,,,,82.23570300319614
1561308578905,-0.4213795065879822,9.749189376831055,0.26815059781074524,180.5078058954557
1561308578920,,,,181.20802322878717
1561308578950,,,0.6224924325942993,
1561308578951,0.871489405632019,5.995080947875977,,80.94517291046805
1561308578995,,,,81.99002792893992
1561308579027,0.5363011956214905,8.638279914855957,-0.5363011956214905,348.37320632496096
1561308579054,,,,349.1319097143815
1561308579095,1.1013327836990356,9.308655738830566,-0.038307227194309235,38.47320567006369
1561308579125,,,,37.92582406469512
1561308579155,1.6280571222305298,11.683704376220703,1.1013327836990356,80.08804564133402
1561308579196,,,,78.95479431462383
1561308579241,,,5.1810526847839355,
1561308579242,0.5746083855628967,14.872780799865723,,132.7904614658802
1561308579276,,,,130.9914989215256
1561308579293,,,3.00711727142334,
1561308579294,0.9576807022094727,10.122684478759766,,120.64004670604777
1561308579339,,,,119.01245360796878
1561308579364,0.7469909191131592,8.820239067077637,1.0534487962722778,93.85141640385416
1561308579406,,,,91.74875632824404
1561308579442,,,-0.2298433631658554,352.5708920322363
1561308579443,0.3447650372982025,7.010222434997559,,
1561308579476,,,,351.9190998863467
1561308579504,0.727837324142456,7.603984832763672,0.09576806426048279,37.875239683702034
1561308579565,,,,37.2658194701022
1561308579578,,,0.3256114423274994,
1561308579579,1.015141487121582,9.643844604492188,,49.32608939326883
1561308579622,,,,48.916803967634166
1561308579644,0.19153612852096558,,0.07661445438861847,48.059181509785276
1561308579645,,12.191274642944336,,
1561308579687,,,,50.03163427415279
1561308579723,,,,105.63362249572037
1561308579724,1.5897499322891235,12.813767433166504,2.9496564865112305,
1561308579772,,,,106.30524182699688
1561308579801,0.9576807022094727,9.84495735168457,0.43095630407333374,58.29770679262066
1561308579830,,,,59.27758622151822
1561308579871,,,0.6799532771110535,
1561308579872,0.3734954595565796,9.806650161743164,,95.20480472751382
1561308579894,,,,96.8566245065789
1561308579926,0.6607996821403503,7.048529624938965,1.0821791887283325,101.27519682406518
1561308579964,,,,102.84915244659209
1561308579994,0.2298433631658554,8.389283180236816,-0.3256114423274994,334.3964706980534
1561308580040,,,,337.13557292316716
1561308580063,,,0.28730419278144836,
1561308580064,1.2066776752471924,9.165003776550293,,55.68620445403383
1561308580105,,,,56.27959762874616
1561308580138,0.8044517636299133,11.109095573425293,0.23942017555236816,55.29723884117993
1561308580174,,,,56.61020269023686
1561308580205,1.4844050407409668,10.975020408630371,0.5841852426528931,67.25798607795025
1561308580244,,,,67.8589197815063
1561308580274,-0.24899697303771973,10.093954086303711,1.2066776752471924,142.52857635426923
1561308580314,,,,143.57655959938097
1561308580344,0.6607996821403503,8.5903959274292,1.647210717201233,118.82846197210694
1561308580387,,,,119.56526179863292
1561308580413,,,1.0534487962722778,
1561308580414,0.06703764945268631,8.925583839416504,,130.2333615840325
1561308580458,,,,130.026803003153
1561308580487,0.4692635238170624,8.063671112060547,0.507570743560791,90.71980199015997
1561308580527,,,,88.0328328914336
1561308580554,0.507570743560791,8.437167167663574,0.06703764945268631,44.971816476629044
1561308580594,,,,46.02948834507845
1561308580623,,,0.17238251864910126,
1561308580624,0.5171475410461426,11.022904396057129,,56.74352115264634
1561308580664,,,,58.133256327974266
1561308580693,,,0.17238251864910126,
1561308580694,1.072602391242981,12.038045883178711,,50.91134897887213
1561308580740,,,,50.375175713931526
1561308580764,-0.9672574996948242,12.066776275634766,0.8427590131759644,175.7924445556884
1561308580816,,,,175.54047887720662
1561308580835,2.365471363067627,8.647856712341309,2.3750481605529785,106.5187945215865
1561308580876,,,,107.60667973182944
1561308580916,,,1.9057846069335938,
1561308580917,1.2832920551300049,7.3454108238220215,,112.23416021526975
1561308580950,,,,112.96342634314118
1561308581005,,,0.038307227194309235,
1561308581006,0.24899697303771973,7.747636795043945,,46.29895979840296
1561308581025,,,,45.04366665160296
1561308581059,0.4405331015586853,8.236053466796875,-0.5363011956214905,341.75786246283826
1561308581097,,,,340.3884471002911
1561308581114,0.5363011956214905,10.218452453613281,-0.5841852426528931,344.1144211604652
1561308581159,,,,345.25173815727885
1561308581185,0.3447650372982025,11.817779541015625,0.9959878921508789,111.63856088945548
1561308581225,,,,111.55573118539075
1561308581261,-0.6799532771110535,13.560758590698242,2.7485435009002686,146.38931346186226
1561308581300,,,,144.86599003165264
1561308581330,,,1.5418659448623657,103.00502419364096
1561308581331,1.072602391242981,8.916007041931152,,
1561308581364,,,,100.70610546241971
1561308581394,0.31603461503982544,10.553641319274902,1.7142484188079834,120.35745445932767
1561308581450,,,,116.89077828570936
1561308581464,,,0.4405331015586853,
1561308581467,0.6129156351089478,7.240066051483154,,70.11451462282218
1561308581525,,,,64.94384968525827
1561308581563,0.7565677165985107,,0.14365209639072418,38.1078656815489
1561308581564,,7.105990409851074,,
1561308581581,,,,35.99372405794401
1561308581622,,,0.3734954595565796,
1561308581623,0.6799532771110535,9.96945571899414,,53.90304013722937
1561308581645,,,,54.90319156758352
1561308581694,0.8331822156906128,10.735600471496582,0.6607996821403503,66.34677737096803
1561308581718,,,,66.91173646816566
1561308581748,0.5650315880775452,12.258312225341797,-0.8427590131759644,323.12727499210496
1561308581793,,,,325.1006600772942
1561308581814,,,2.7485435009002686,
1561308581816,0.9193734526634216,,,109.69312493834991
1561308581817,,12.4785795211792,,
1561308581864,,,,110.42416008521639
1561308581897,,,1.0342950820922852,98.30472706345915
1561308581898,0.45010992884635925,10.457873344421387,,
1561308581931,,,,97.65809939435565
1561308581956,0.5841852426528931,6.761225700378418,0.5650315880775452,76.03029172713195
1561308581994,,,,76.02905546289219
1561308582033,0.4596867263317108,,0.38307225704193115,68.72754908920274
1561308582034,,7.51779317855835,,
1561308582069,,,,69.13861719421072
1561308582094,0.6320692300796509,9.222464561462402,-0.12449848651885986,13.780358296759573
1561308582147,,,,15.761665547612438
1561308582163,,,-0.8331822156906128,
1561308582164,0.6129156351089478,10.745177268981934,,327.58957759575225
1561308582210,,,,326.72194549567473
1561308582236,1.8291701078414917,11.080365180969238,0.009576806798577309,32.02201003671661
1561308582275,,,,32.983813369975735
1561308582318,-0.5650315880775452,13.436260223388672,3.19865345954895,137.58921577294777
1561308582344,,,,137.32432737655634
1561308582375,1.091755986213684,8.695740699768066,2.63362193107605,116.80805103448216
1561308582414,,,,116.75115555869596
1561308582443,,,0.4596867263317108,
1561308582444,-0.05746084079146385,9.682151794433594,,124.19455911239245
1561308582490,,,,125.88436157343193
1561308582514,,,0.3447650372982025,56.607371576825926
1561308582516,0.8236053586006165,8.063671112060547,,
1561308582563,,,,56.75844853107742
1561308582598,,,0.1149216815829277,
1561308582599,1.0630255937576294,8.303091049194336,,39.24534489535529
1561308582631,,,,41.70701678921421
1561308582655,,,0.6703764796257019,
1561308582656,0.8906430602073669,9.634267807006836,,74.75732205075997
1561308582694,,,,74.24921061802439
1561308582725,0.6320692300796509,10.946290016174316,-0.038307227194309235,26.09459941270302
1561308582767,,,,30.319168744551575
1561308582815,,,3.1699230670928955,
1561308582819,0.45010992884635925,14.537592887878418,,127.95515198637474
1561308582837,,,,131.30165781173585
1561308582888,2.691082715988159,8.293514251708984,2.4420857429504395,113.57479657574902
1561308582929,,,,113.83560734920599
1561308582941,,,-0.13407529890537262,
1561308582943,0.13407529890537262,9.548076629638672,,350.7109051627422
1561308582975,,,,353.9629332501828
1561308583008,1.139639973640442,6.933608055114746,0.9385270476341248,98.09930229398185
1561308583054,,,,97.78586491296994
1561308583089,0.38307225704193115,8.245630264282227,-0.5267243981361389,342.4386120494878
1561308583114,,,,344.8683732995444
1561308583144,0.6512228846549988,8.83939266204834,-0.40222588181495667,10.687982466073493
1561308583184,,,,11.596924404024946
1561308583213,,,0.06703764945268631,
1561308583215,0.9385270476341248,11.204863548278809,,52.039703059947385
1561308583257,,,,51.65255427741272
1561308583292,,,-1.015141487121582,18.10188984783929
1561308583293,1.8387469053268433,11.15697956085205,,
1561308583334,,,,16.079911381800002
1561308583367,-1.4173674583435059,13.656526565551758,1.6759412288665771,172.0855369685824
1561308583394,,,,171.9043866914153
1561308583429,,,1.158793568611145,
1561308583430,1.158793568611145,7.824251174926758,,104.40497391687262
1561308583464,,,,103.34266093488219
1561308583494,,,1.3694833517074585,
1561308583495,0.9959878921508789,8.992621421813965,,109.55665775873308
1561308583542,,,,109.96093665570612
1561308583566,,,0.2777273952960968,67.3015353640983
1561308583567,0.8427590131759644,7.65186882019043,,
1561308583607,,,,60.657291264049945
1561308583666,,,-0.14365209639072418,
1561308583667,1.5418659448623657,6.780379295349121,,43.14336800562745
1561308583680,,,,37.71394476645219
1561308583724,,,-0.3447650372982025,
1561308583725,0.7374141216278076,10.007762908935547,,5.104112001178123
1561308583750,,,,5.648024297335155
1561308583774,1.0247182846069336,11.808202743530273,-0.9768342971801758,342.7154208335282
1561308583818,,,,347.8183490775458
1561308583843,,,0.6512228846549988,
1561308583844,0.7182605266571045,10.113107681274414,,85.34026986777707
1561308583885,,,,87.74670943691262
1561308583913,,,0.9672574996948242,
1561308583914,0.6512228846549988,11.022904396057129,,102.28637900992885
1561308583975,,,,103.14435322252007
1561308584000,,,,87.05216116059239
1561308584002,1.1109095811843872,8.485051155090332,0.7469909191131592,
1561308584034,,,,90.76800946532194
1561308584055,0.8236053586006165,7.33583402633667,0.5937620401382446,90.39032732497685
1561308584095,,,,90.54593952483731
1561308584142,0.6991068720817566,9.136273384094238,-0.5363011956214905,1.224453775480299
1561308584171,,,,5.831857985072418
1561308584204,,,,18.074371015673307
1561308584205,1.4748282432556152,9.2033109664917,-0.8810662031173706,
1561308584259,,,,23.174213721733395
1561308584293,,,0.6320692300796509,88.5031392271132
1561308584294,1.0630255937576294,11.626243591308594,,
1561308584327,,,,89.98027691815514
1561308584341,,,1.3215993642807007,
1561308584342,1.235408067703247,13.196839332580566,,108.86082540684885
1561308584380,,,,111.29335629861387
1561308584418,-0.5650315880775452,11.03248119354248,0.45010992884635925,189.81695758321132
1561308584444,,,,191.83187704874342
1561308584473,,,1.0630255937576294,
1561308584474,0.38307225704193115,8.561665534973145,,132.8230414682212
1561308584514,,,,131.24397003400594
1561308584544,0.6416460275650024,7.4986395835876465,0.4692635238170624,98.08991078387305
1561308584597,,,,96.3470036020367
1561308584616,,,-0.24899697303771973,40.98440668068895
1561308584617,0.8619126081466675,7.948749542236328,,
1561308584667,,,,42.47945995792384
1561308584700,0.6224924325942993,9.66299819946289,0.22026655077934265,76.94247715116552
1561308584742,,,,75.56889195813005
1561308584754,0.7852981686592102,10.189722061157227,-0.5746083855628967,16.08650934453823
1561308584808,,,,16.836216521048186
1561308584824,1.867477297782898,11.72201156616211,0.2585737705230713,71.63401997728573
1561308584874,,,,70.39826800170118
1561308584893,,,1.1109095811843872,
1561308584894,0.9768342971801758,11.875240325927734,,108.3897609201714
1561308584945,,,,108.636617617154
1561308584963,,,1.1204863786697388,
1561308584964,1.7046716213226318,9.787496566772461,,99.21344958158346
1561308585014,,,,98.72106124431724
1561308585042,0.6799532771110535,8.667010307312012,0.871489405632019,111.81932184583985
1561308585098,,,,113.61049114435153
1561308585121,0.8044517636299133,7.383718013763428,-0.22026655077934265,44.0653684114983
1561308585160,,,,42.86580277813647
1561308585175,1.072602391242981,8.5903959274292,-0.43095630407333374,36.551784664079946
1561308585231,,,,36.322478138169686
1561308585243,,,-0.009576806798577309,
1561308585244,1.0630255937576294,10.35252857208252,,58.0510276805565
1561308585294,,,,55.891533600862715
1561308585313,,,1.3886369466781616,
1561308585314,1.2449848651885986,11.1474027633667,,108.35934608779735
1561308585367,,,,106.58163226195063
1561308585398,-0.19153612852096558,12.085929870605469,1.455674648284912,150.67522984528856
1561308585435,,,,148.31468914737547
1561308585458,0.6224924325942993,10.639832496643066,2.2218191623687744,130.0239070029449
1561308585510,,,,129.16460090346558
1561308585538,0.6033388376235962,,1.3694833517074585,119.61792255713371
1561308585539,,9.653421401977539,,
1561308585574,,,,116.839060093314
1561308585600,0.3256114423274994,8.245630264282227,0.38307225704193115,96.32138356245997
1561308585663,,,,93.06184653580067
1561308585664,0.3734954595565796,,-0.3256114423274994,359.1304910386437
1561308585665,,7.508216381072998,,
1561308585720,,,,355.63331278765685
1561308585748,,,-0.3256114423274994,6.068897138896773
1561308585749,0.5363011956214905,9.155426979064941,,
1561308585793,,,,4.928774214994746
1561308585810,0.20111294090747833,11.30063247680664,0.2106897532939911,83.45780826081898
1561308585869,,,,80.68264775952946
1561308585883,0.9576807022094727,12.258312225341797,1.522712230682373,97.64658369541502
1561308585928,,,,97.54068161233397
1561308585956,0.5746083855628967,10.323798179626465,0.26815059781074524,60.304109012257754
1561308586011,,,,59.28540678811788
1561308586028,1.5131354331970215,11.08994197845459,2.097320795059204,97.02681916031725
1561308586067,,,,96.57964667535651
1561308586084,,,,89.29736728418061
1561308586085,0.8140285611152649,6.004657745361328,0.9097966551780701,
1561308586147,,,,86.36906028132103
1561308586176,,,-1.0534487962722778,
1561308586178,0.1628057211637497,7.565677165985107,,299.04396992203203
1561308586220,,,,298.11514615718033
1561308586247,0.6129156351089478,9.47146224975586,-0.5841852426528931,341.1162874261733
1561308586275,,,,339.99601004379156
1561308586295,0.6799532771110535,11.798625946044922,0.28730419278144836,51.27793547691044
1561308586344,,,,50.05547504945076
1561308586370,,,2.7964274883270264,136.27687688619986
1561308586371,-0.6129156351089478,10.773907661437988,,
1561308586415,,,,134.97404562277663
1561308586443,0.1628057211637497,7.642292022705078,0.4405331015586853,96.24577336834795
1561308586501,,,,94.71331797521805
1561308586535,0.038307227194309235,9.749189376831055,1.1013327836990356,115.18104533267177
1561308586577,0.8810662031173706,,1.3215993642807007,112.10554775319844
1561308586578,,8.743624687194824,,
1561308586633,,,,83.68502816393783
1561308586650,0.871489405632019,8.53293514251709,0.7565677165985107,65.30369820168039
1561308586699,,,,62.08069585689145
1561308586714,0.6703764796257019,,-0.28730419278144836,350.33985769740224
1561308586715,,10.141838073730469,,
1561308586781,,,,347.916102744947
1561308586810,1.0630255937576294,11.951854705810547,0.545877993106842,43.09841511560501
1561308586857,0.7565677165985107,,2.049436569213867,40.04651242461949
1561308586858,,12.622231483459473,,
1561308586921,,,,87.26471664756315
1561308586925,1.4460978507995605,,1.5322890281677246,65.34569020469763
1561308586927,,10.295066833496094,,
1561308586984,,,,64.89842209708848
1561308587001,0.4213795065879822,8.820239067077637,0.689530074596405,70.3112377312969
1561308587045,,,,66.36526669305124
1561308587069,0.4884171485900879,7.747636795043945,-0.4596867263317108,315.25550246423273
1561308587114,,,,314.5876943785131
1561308587149,,,-0.028730420395731926,
1561308587150,0.9959878921508789,8.389283180236816,,0.5582774646420603
1561308587191,,,,359.2732522375807
1561308587211,1.0055646896362305,10.35252857208252,-0.4884171485900879,330.9775904806995
1561308587258,,,,330.40046681659015
1561308587273,,,0.9289502501487732,
1561308587274,1.1013327836990356,11.224017143249512,,50.0591565214134
1561308587344,,,,50.5550043494942
1561308587351,-0.13407529890537262,12.583924293518066,2.250549554824829,
1561308587396,,,,115.56826241709814
1561308587414,1.4844050407409668,8.65743350982666,2.0207061767578125,96.93952251253529
1561308587464,,,,110.28978977367473
1561308587489,0.8236053586006165,9.519346237182617,0.8523358106613159,73.77296884795612
1561308587535,,,,82.36738905039397
1561308587562,0.8044517636299133,8.015787124633789,0.23942017555236816,43.28110218533533
1561308587629,0.871489405632019,,0.6224924325942993,54.928886739241136
1561308587630,,8.303091049194336,,
1561308587697,1.3311761617660522,8.925583839416504,0.31603461503982544,86.98917998625569
1561308587747,,,,68.81658060503383
1561308587764,0.181959331035614,12.306197166442871,0.09576806426048279,67.7774766058431
1561308587814,,,,73.348479421229
1561308587839,0.727837324142456,12.622231483459473,2.9017724990844727,135.50890407630197
1561308587886,,,,139.51635364726687
1561308587922,,,-0.009576806798577309,
1561308587923,1.015141487121582,9.47146224975586,,58.36677366550782
1561308587963,,,,59.17328240270297
1561308587978,,,1.436521053314209,
1561308587979,0.5746083855628967,9.117119789123535,,130.4863654512681
1561308588025,,,,131.75255957998343
1561308588044,0.45010992884635925,,-0.4692635238170624,8.402671179226218
1561308588045,,7.881711959838867,,
1561308588100,,,,5.1478777189454945
1561308588113,,,0.363918662071228,82.39757165633625
1561308588114,0.871489405632019,8.274360656738281,,
1561308588171,,,,80.42486275987483
1561308588195,0.363918662071228,9.77791976928711,-0.9864110946655273,336.0042989362217
1561308588245,,,,332.6678795927174
1561308588261,0.5650315880775452,11.41555404663086,1.1300631761550903,116.90004002222389
1561308588305,,,,115.04225588873709
1561308588333,-0.47884035110473633,13.464990615844727,3.6104562282562256,150.5915190468209
1561308588383,,,,149.0603818802008
1561308588394,0.45010992884635925,9.404424667358398,1.6855180263519287,127.74409914102137
1561308588470,0.4596867263317108,9.710882186889648,1.3982137441635132,126.68009227211678
1561308588514,,,,119.94022552368827
1561308588535,0.5841852426528931,7.029376029968262,0.05746084079146385,48.42514646060914
1561308588590,,,,48.37455524942686
1561308588604,1.091755986213684,6.761225700378418,-0.009576806798577309,48.20885486016232
1561308588655,,,,55.38877362134184
1561308588700,,,-0.4596867263317108,
1561308588701,0.24899697303771973,10.620678901672363,,339.4436799663693
1561308588755,,,,341.5800777613847
1561308588756,0.2777273952960968,11.865663528442383,0.4213795065879822,
1561308588794,,,,102.37358686525158
1561308588833,1.3886369466781616,12.536040306091309,1.9536685943603516,110.67564765045626
1561308588896,,,,108.64238912700267
1561308588897,1.6855180263519287,9.730035781860352,0.2777273952960968,62.29562824969338
1561308588967,0.26815059781074524,,0.4692635238170624,62.990989318524896
1561308588968,,9.490615844726563,,
1561308589031,0.7182605266571045,6.9240312576293945,0.5937620401382446,103.73374390637878
1561308589105,,,,87.76008977749666
1561308589106,0.33518823981285095,8.149862289428711,-0.7757213711738586,328.11356580321353
1561308589161,,,,325.8140152794941
1561308589172,0.8619126081466675,9.02135181427002,-0.17238251864910126,28.847109299157523
1561308589222,,,,31.490822809870167
1561308589250,,,-0.4213795065879822,319.3691444013184
1561308589251,0.08619125932455063,11.66455078125,,
1561308589287,,,,318.1358615391188
1561308589321,0.9289502501487732,12.986149787902832,0.7852981686592102,84.73469846577456
1561308589362,,,,82.90091561703116
1561308589374,0.5746083855628967,9.950302124023438,1.4748282432556152,114.70869677043038
1561308589447,,,,112.24298481967742
1561308589450,,,1.359906554222107,136.3366137206808
1561308589451,-0.15322890877723694,9.806650161743164,,
1561308589514,,,,133.66855058557707
1561308589526,0.5937620401382446,8.418013572692871,0.5841852426528931,81.90247173396955
1561308589568,,,,79.29071667838338
1561308589596,0.6799532771110535,7.613561630249023,-0.5650315880775452,345.38295804406584
1561308589649,,,,341.44779407263445
1561308589657,0.2968810200691223,9.011775016784668,0.009576806798577309,27.08769184254993
1561308589704,,,,27.095862456344605
1561308589728,1.3311761617660522,10.046070098876953,0.23942017555236816,41.01549770179082
1561308589774,,,,40.42004522504374
1561308589795,0.9864110946655273,11.78904914855957,-0.49799394607543945,356.5498449867669
1561308589852,,,,357.1283976545167
1561308589877,,,,123.69035454786211
1561308589878,0.6607996821403503,13.867216110229492,4.434061527252197,
1561308589918,,,,125.36237119630289
1561308589935,0.23942017555236816,11.15697956085205,0.6607996821403503,100.88435290918954
1561308589995,,,,105.75136129663304
1561308590005,1.1204863786697388,,0.4692635238170624,66.41390447013094
1561308590006,,7.105990409851074,,
1561308590067,,,,66.76164306115459
1561308590075,0.8044517636299133,7.546523571014404,0.22026655077934265,53.144066101563
1561308590141,,,,50.70364634130658
1561308590168,,,,23.879680055441895
1561308590169,1.455674648284912,7.508216381072998,-0.28730419278144836,
1561308590232,,,,24.68405606606865
1561308590233,0.9193734526634216,11.262324333190918,-0.2106897532939911,17.63140421969399
1561308590264,,,,19.59687311563522
1561308590293,0.9672574996948242,11.597513198852539,0.7948749661445618,79.12734538362588
1561308590338,,,,82.40158780756826
1561308590353,,,2.9879636764526367,
1561308590354,-0.35434186458587646,13.704410552978516,,141.7827470176605
1561308590424,-0.2777273952960968,,1.9249382019042969,140.7341900366585
1561308590425,,10.08437728881836,,
1561308590483,,,,140.801180532038
1561308590494,-0.12449848651885986,9.931148529052734,1.3982137441635132,135.39264059625003
1561308590549,,,,134.761858966021
1561308590582,,,,78.15046440777394
1561308590583,0.9002198576927185,6.914454460144043,0.5650315880775452,
1561308590615,,,,77.68850456326015
1561308590642,,,,74.85030141593137
1561308590643,1.6376339197158813,7.0772600173950195,0.5746083855628967,
1561308590685,,,,71.06723721957974
1561308590715,,,-0.028730420395731926,32.13265227108167
1561308590716,0.8619126081466675,9.279925346374512,,
1561308590795,0.8810662031173706,10.975020408630371,-0.35434186458587646,36.68902023997839
1561308590833,,,,17.923481891623965
1561308590843,,,-0.3064578175544739,13.775374819986439
1561308590844,0.6607996821403503,12.497733116149902,,
1561308590898,,,,15.536120748387532
1561308590913,,,-0.1149216815829277,
1561308590914,2.4133553504943848,8.101978302001953,,61.02093736565058
1561308590966,,,,66.40398703545605
1561308591003,-0.4118026793003082,11.626243591308594,0.6224924325942993,166.91388165358882
1561308591035,,,,174.35406135799707
1561308591068,1.139639973640442,6.952761650085449,0.9864110946655273,110.9777947287701
1561308591108,,,,110.55203488685737
1561308591124,0.49799394607543945,8.379706382751465,0.19153612852096558,76.15121339619787
1561308591201,0.5171475410461426,9.433155059814453,0.2298433631658554,78.82967207921837
1561308591260,,,,84.42053025452145
1561308591271,,,0.17238251864910126,
1561308591272,,,,74.36377338097304
1561308591283,0.7852981686592102,10.304644584655762,,
1561308591314,,,,74.66475249693883
1561308591355,,,-0.2968810200691223,
1561308591356,0.7469909191131592,11.329362869262695,,37.86453677727263
1561308591419,,,,38.48017929320628
1561308591420,-0.028730420395731926,13.330915451049805,3.44765043258667,154.77311112086443
1561308591455,,,,150.40092944822086
1561308591491,0.8523358106613159,8.389283180236816,0.4884171485900879,89.94495117976788
1561308591526,,,,85.1191561537762
1561308591543,,,1.7334020137786865,
1561308591544,0.6033388376235962,9.241618156433105,,128.47585828793984
1561308591594,,,,125.35611474302317
1561308591630,0.8427590131759644,7.240066051483154,0.35434186458587646,75.1203875862812
1561308591664,,,,70.62052918748259
1561308591695,0.6129156351089478,8.159439086914063,0.23942017555236816,65.9319253411598
1561308591740,,,,64.31618945147994
1561308591756,,,-0.4405331015586853,
1561308591758,0.028730420395731926,9.892841339111328,,309.26094254294145
1561308591830,,,,308.1020438558979
1561308591833,,,0.5171475410461426,65.24081948018124
1561308591836,1.4939818382263184,10.821791648864746,,
1561308591901,,,,61.22512587088812
1561308591902,-0.20111294090747833,14.863204002380371,3.734954595565796,136.8576615317044
1561308591944,,,,138.09735452644006
1561308591970,2.432508945465088,7.718906402587891,0.363918662071228,64.12226672056494
1561308592014,,,,63.49605448689067
1561308592057,,,0.9768342971801758,
1561308592059,0.4692635238170624,10.687716484069824,,104.6712829926114
1561308592101,,,,107.53796119858995
1561308592134,,,,111.28141029775551
1561308592135,0.181959331035614,7.527369976043701,0.507570743560791,
1561308592200,0.2777273952960968,8.734047889709473,-0.3447650372982025,112.70277949422433
1561308592227,,,,344.19030114704947
1561308592283,1.0247182846069336,9.27034854888916,0.4405331015586853,69.21915195471439
1561308592297,,,,68.78488852728498
1561308592343,0.4118026793003082,11.559206008911133,0.363918662071228,81.38849999892608
1561308592390,,,,83.78188707655778
1561308592391,0.4118026793003082,10.582371711730957,0.06703764945268631,50.1584401511887
1561308592435,,,,52.816930776170636
1561308592472,-0.6991068720817566,12.679692268371582,1.0630255937576294,166.1890073373537
1561308592519,,,,167.81474262397847
1561308592527,1.1109095811843872,9.509769439697266,1.9536685943603516,119.86423283898273
1561308592575,,,,115.49836226113223
1561308592616,,,0.8523358106613159,
1561308592617,0.9193734526634216,8.26478385925293,,93.37518146397497
1561308592644,,,,93.25782515365586
1561308592664,0.26815059781074524,8.724471092224121,-0.2777273952960968,350.1373835696464
1561308592724,,,,354.3023735882517
1561308592735,0.363918662071228,8.216899871826172,-0.31603461503982544,359.684414764618
1561308592801,,,,359.7226764171313
1561308592810,0.13407529890537262,,-0.3734954595565796,328.87469817865764
1561308592811,,10.793061256408691,,
1561308592855,,,,331.68645312597283
1561308592896,0.727837324142456,11.884817123413086,0.4213795065879822,78.4826779788142
1561308592924,,,,81.68236888796588
1561308592947,1.015141487121582,12.507309913635254,2.719813108444214,128.17472890781232
1561308593012,,,,132.32275743227441
1561308593015,,,,88.3859741620908
1561308593017,2.920926094055176,8.580819129943848,0.6416460275650024,
1561308593064,,,,89.76275588365775
1561308593102,,,1.1300631761550903,
1561308593103,0.8044517636299133,11.204863548278809,,115.8860301380438
1561308593150,,,,114.83114840187034
1561308593158,0.8906430602073669,7.249642848968506,0.6703764796257019,99.6245245167807
1561308593205,,,,97.66895256494684
1561308593238,0.38307225704193115,7.7763671875,-0.8331822156906128,345.79496359253744
1561308593283,,,,348.8826180549598
1561308593310,0.689530074596405,9.59596061706543,0.09576806426048279,66.19397920904566
1561308593350,,,,67.3832585775175
1561308593384,1.2258312702178955,11.1474027633667,0.507570743560791,84.06106422869289
1561308593414,,,,81.02794797301942
1561308593445,1.072602391242981,13.254301071166992,2.557007312774658,126.89546179702563
1561308593499,,,,124.30448417689462
1561308593511,0.22026655077934265,9.002198219299316,0.4692635238170624,118.35630465516232
1561308593573,,,,118.0007386673498
1561308593600,0.363918662071228,9.998186111450195,0.7948749661445618,119.38161167222961
1561308593633,,,,119.18424652597292
1561308593643,,,1.292868971824646,
1561308593644,0.7757213711738586,8.619126319885254,,115.30012285066175
1561308593699,,,,115.31773107834206
1561308593726,,,,330.23537089906716
1561308593727,0.1149216815829277,7.383718013763428,-0.6320692300796509,
1561308593764,,,,333.99585619757005
1561308593788,,,-0.05746084079146385,
1561308593790,0.35434186458587646,9.346963882446289,,46.761940756197646
1561308593835,,,,44.871651752450816
1561308593872,0.9864110946655273,10.869675636291504,0.2585737705230713,70.81478659766691
1561308593920,,,,68.45968956052229
1561308593929,1.3311761617660522,12.047622680664063,0.009576806798577309,54.33960192331449
1561308593977,,,,53.17586063214941
1561308594021,,,3.1220390796661377,
1561308594022,0.5841852426528931,,,133.86546493934853
1561308594023,,13.42668342590332,,
1561308594044,,,,132.93356758937034
1561308594064,3.160346269607544,7.671022415161133,1.158793568611145,84.48116867397283
1561308594125,,,,84.62740302410282
1561308594156,0.45010992884635925,9.423578262329102,0.2298433631658554,77.15874826104476
1561308594190,,,,77.24100422921924
1561308594234,1.1204863786697388,,0.6512228846549988,85.10571434148966
1561308594235,,7.058106422424316,,
1561308594258,,,,85.50485010601767
1561308594276,0.8427590131759644,7.240066051483154,-0.5841852426528931,15.46603276221947
1561308594337,,,,15.170623665521816
1561308594345,0.6224924325942993,9.59596061706543,-0.35434186458587646,19.712161586183186
1561308594404,,,,20.434360175810923
1561308594430,0.2968810200691223,12.7946138381958,0.7086837291717529,118.2942182356069
1561308594470,,,,118.25900178024631
1561308594485,0.9002198576927185,12.938265800476074,3.227383852005005,130.02751334282667
1561308594540,,,,129.77228283392162
1561308594571,,,0.6416460275650024,115.01937475501757
1561308594572,0.31603461503982544,8.983044624328613,,
1561308594605,,,,114.58653883712469
1561308594645,0.5171475410461426,10.160991668701172,1.867477297782898,128.03352157691148
1561308594679,,,,123.2140034947671
1561308594693,,,1.1779472827911377,
1561308594694,0.5267243981361389,9.385271072387695,,113.57024766976181
1561308594744,,,,112.20360194892311
1561308594775,0.6703764796257019,8.686163902282715,0.20111294090747833,60.940525548552046
1561308594814,,,,58.507099902005734
1561308594843,,,-0.038307227194309235,
1561308594844,0.9959878921508789,7.824251174926758,,40.27036845957207
1561308594888,,,,39.59175842968
1561308594905,,,0.2777273952960968,
1561308594906,,,,57.73440743139139
1561308594907,0.9672574996948242,10.429142951965332,,
1561308594960,,,,58.807054489596
1561308595008,1.1779472827911377,11.951854705810547,-0.06703764945268631,38.78957320222952
1561308595029,,,,36.910789652139556
1561308595043,,,0.6991068720817566,
1561308595044,2.5761611461639404,8.78193187713623,,64.17232517699193
1561308595094,,,,65.12446720767008
1561308595125,1.0534487962722778,11.070788383483887,1.235408067703247,93.70214261954351
1561308595170,,,,94.8830618364712
1561308595188,0.727837324142456,8.197746276855469,0.5554547905921936,81.42113464278043
1561308595235,,,,82.93927395941
1561308595269,1.0438719987869263,7.010222434997559,0.07661445438861847,50.18319958692996
1561308595325,0.9768342971801758,,-0.33518823981285095,48.94166244111841
1561308595326,,8.063671112060547,,
1561308595378,,,,23.179457599468662
1561308595395,1.0055646896362305,10.524910926818848,-0.6416460275650024,8.090362486974698
1561308595445,,,,9.898474923496224
1561308595487,0.6033388376235962,11.396400451660156,0.6512228846549988,91.85461060000091
1561308595514,,,,91.744214252446
1561308595554,-0.4118026793003082,12.832921028137207,2.1164743900299072,145.83956519594625
1561308595588,,,,144.2975133870325
1561308595603,,,2.011129379272461,
1561308595604,1.2449848651885986,9.53849983215332,,107.69819743651846
1561308595657,,,,105.61825457008783
1561308595693,1.0342950820922852,10.773907661437988,2.652775526046753,115.6856597085523
1561308595732,,,,113.73521039859594
1561308595760,0.545877993106842,7.7763671875,-0.3447650372982025,2.6074945116479284
1561308595814,0.6512228846549988,7.929595947265625,-0.12449848651885986,0.10646570708968284
1561308595871,,,,22.22964637084482
1561308595911,,,,61.38208361801503
1561308595912,0.49799394607543945,9.643844604492188,0.2585737705230713,
1561308595936,,,,62.0972249146829
1561308595970,,,-0.19153612852096558,
1561308595971,0.8236053586006165,11.128249168395996,,20.376474322595072
1561308596030,-0.009576806798577309,14.16409683227539,3.227383852005005,22.20081784990549
1561308596083,,,,134.46795592603536
1561308596119,,,1.359906554222107,85.79682020246821
1561308596120,2.719813108444214,7.307103633880615,,
1561308596152,,,,86.79983348208458
1561308596163,,,0.871489405632019,85.43777081817899
1561308596164,0.9768342971801758,9.873687744140625,,
1561308596214,,,,88.1902482612349
1561308596251,1.3120225667953491,7.977479934692383,1.886630892753601,109.28205683334187
1561308596303,,,,110.07829979621445
1561308596314,1.1204863786697388,7.489062786102295,-0.13407529890537262,38.807857618637684
1561308596374,,,,37.62035068425547
1561308596375,0.7182605266571045,10.735600471496582,0.038307227194309235,44.71829009992189
1561308596424,,,,44.64809966091627
1561308596451,1.6184803247451782,10.879252433776855,0.6320692300796509,68.97969918279205
1561308596497,,,,72.18070148826439
1561308596514,0.8523358106613159,11.78904914855957,-0.09576806426048279,38.022758109395966
1561308596592,0.10534487664699554,12.97657299041748,3.773261785507202,41.04594668511078
1561308596661,,,1.656787633895874,142.90952332503753
1561308596662,0.5363011956214905,9.682151794433594,,
1561308596704,,,,125.71493190088063
1561308596723,,,1.359906554222107,
1561308596724,1.5131354331970215,8.063671112060547,,101.66688768239788
1561308596774,,,,100.74882146548896
1561308596811,0.4118026793003082,7.4986395835876465,-0.5841852426528931,348.48556464435495
1561308596862,,,,348.58537505247
1561308596871,0.6799532771110535,8.044517517089844,-0.047884032130241394,43.97775415991998
1561308596914,,,,43.41903785562374
1561308596954,-0.3734954595565796,10.457873344421387,-0.9002198576927185,286.5979514051106
1561308596997,,,,287.3718459890189
1561308597004,,,,56.69551175297033
1561308597005,0.6799532771110535,12.48815631866455,0.1149216815829277,
1561308597057,,,,60.1360317171621
1561308597073,,,1.944091796875,112.82727335222614
1561308597074,1.3024457693099976,12.574347496032715,,
1561308597124,,,,112.90582052768133
1561308597152,2.250549554824829,8.169015884399414,0.15322890877723694,66.006818365409
1561308597200,,,,65.68103883256691
1561308597213,2.1356279850006104,9.739612579345703,1.4173674583435059,95.02545762028763
1561308597264,,,,97.14844433886765
1561308597299,1.1875240802764893,,1.3311761617660522,108.63945214565956
1561308597300,,8.427590370178223,,
1561308597350,,,,109.91587106756236
1561308597362,0.9193734526634216,7.680599212646484,-0.08619125932455063,51.5073273801853
1561308597411,,,,53.141351101367945
1561308597423,,,-0.689530074596405,
1561308597424,0.7757213711738586,9.2033109664917,,13.050702848105459
1561308597485,,,,11.856568922681106
1561308597493,,,-0.08619125932455063,50.6888282459023
1561308597494,0.9672574996948242,11.377246856689453,,
1561308597544,,,,51.617050954107015
1561308597569,,,0.5171475410461426,82.18173084837468
1561308597570,1.2258312702178955,11.319786071777344,,
1561308597624,,,,82.05283834854737
1561308597637,1.0055646896362305,13.110648155212402,3.8786067962646484,137.81030899638108
1561308597687,,,,135.4662836958811
1561308597720,0.6033388376235962,7.7763671875,-0.181959331035614,35.55864783800337
1561308597778,0.8523358106613159,9.59596061706543,1.6280571222305298,36.164864692882475
1561308597828,,,,120.71826603242278
1561308597843,0.5554547905921936,,1.2545616626739502,122.23284682049476
1561308597844,,9.461885452270508,,
1561308597912,,,,119.76247668072784
1561308597920,,,,76.34323050433443
1561308597921,,,0.2298433631658554,
1561308597922,0.47884035110473633,7.33583402633667,,
1561308597967,,,,74.22214257834366
1561308597985,0.4692635238170624,9.385271072387695,0.4884171485900879,94.8075814159534
1561308598035,,,,95.40979919507339
1561308598069,,,1.3407529592514038,
1561308598070,1.1013327836990356,11.185709953308105,,104.23200620633122
1561308598120,,,,105.72527680419276
1561308598133,0.49799394607543945,12.076353073120117,-0.13407529890537262,33.26979339052417
1561308598176,,,,33.4056219474536
1561308598193,,,2.7964274883270264,
1561308598194,1.4844050407409668,12.239158630371094,,119.91509042754262
1561308598254,,,,119.01452998547643
1561308598263,,,0.9672574996948242,85.51105191778402
1561308598264,2.0015525817871094,8.552088737487793,,
1561308598334,,,0.7757213711738586,85.38727522964507
1561308598335,1.0630255937576294,9.461885452270508,,
1561308598386,,,,90.3706905311131
1561308598422,,,0.181959331035614,66.28421966835992
1561308598423,0.6799532771110535,7.872135162353516,,
1561308598467,,,,65.05400014600303
1561308598474,,,-0.10534487664699554,37.37985630848476
1561308598475,0.5650315880775452,8.26478385925293,,
1561308598524,,,,38.71709123475739
1561308598543,,,0.181959331035614,
1561308598544,0.9385270476341248,8.169015884399414,,63.729045899858136
1561308598618,,,,63.8591473431685
1561308598619,0.9672574996948242,11.48259162902832,0.4884171485900879,78.90970140572341
1561308598664,,,,79.21983297517698
1561308598685,,,0.047884032130241394,56.32040800903701
1561308598686,1.656787633895874,10.821791648864746,,
1561308598741,,,,54.661464342667614
1561308598755,-0.2298433631658554,12.124237060546875,2.786850690841675,146.71855590061355
1561308598804,,,,144.10406876935937
1561308598823,,,0.8427590131759644,
1561308598824,0.06703764945268631,9.040505409240723,,131.7124117280421
1561308598876,,,,130.1237643686105
1561308598894,0.2777273952960968,9.002198219299316,1.3215993642807007,125.57433928700507
1561308598944,,,,124.86369908500026
1561308598964,0.3256114423274994,7.613561630249023,-0.009576806798577309,39.4956474227742
1561308599014,,,,35.55406136597571
1561308599044,,,0.2106897532939911,
1561308599045,0.07661445438861847,9.232041358947754,,107.11869003638873
1561308599085,,,,105.23792914653399
1561308599104,0.7948749661445618,10.15141487121582,0.6703764796257019,80.65471228582408
1561308599159,,,,80.29943316595671
1561308599183,,,0.1628057211637497,59.56510986481908
1561308599185,0.363918662071228,11.760318756103516,,
1561308599224,,,,61.535619440367725
1561308599244,,,3.2178070545196533,138.96185156968855
1561308599245,-0.2585737705230713,13.206416130065918,,
1561308599295,,,,141.68787569008904
1561308599314,2.5761611461639404,7.422025203704834,1.292868971824646,90.61361303913378
1561308599364,,,,93.54922151421607
1561308599390,,,0.8619126081466675,
1561308599391,0.28730419278144836,10.620678901672363,,117.3292491096675
1561308599442,,,,118.24355189234376
1561308599459,0.3926490843296051,7.240066051483154,0.4213795065879822,94.04907524824512
1561308599504,,,,94.2342826577792
1561308599525,0.5554547905921936,7.46033239364624,-0.49799394607543945,0.20198843727285976
1561308599578,,,,0.04236794690109491
1561308599594,0.6607996821403503,10.199298858642578,0.1149216815829277,55.27243159411444
1561308599650,,,,55.55610984091254
1561308599664,0.8331822156906128,,0.5267243981361389,79.5493691120626
1561308599665,,12.191274642944336,,
1561308599719,,,,79.71317070873783
1561308599737,1.3120225667953491,10.093954086303711,0.1628057211637497,56.50485043738399
1561308599789,,,,59.181273724031826
1561308599810,-0.49799394607543945,11.903970718383789,1.6184803247451782,155.40859192124242
1561308599856,,,,155.72409201938365
1561308599875,0.5650315880775452,10.237606048583984,1.4077905416488647,121.00087193952123
1561308599925,,,,119.67663486323914
1561308599943,,,0.8523358106613159,
1561308599944,0.7086837291717529,8.647856712341309,,101.78151191704904
1561308599998,,,,98.2186393591603
1561308600024,,,0.047884032130241394,48.5543873000841
1561308600025,0.7086837291717529,7.469909191131592,,
1561308600069,,,,47.3455018735998
1561308600090,0.4596867263317108,,-0.8906430602073669,333.1247577764887
1561308600091,,8.044517517089844,,
1561308600146,,,,330.4997367859871
1561308600156,0.9193734526634216,9.481039047241211,0.4884171485900879,70.81709520160638
1561308600204,,,,69.71501685826814
1561308600224,,,0.6607996821403503,
1561308600225,0.9385270476341248,12.02846908569336,,76.24367366699232
1561308600274,,,,76.73640351371705
1561308600294,1.3215993642807007,13.962984085083008,3.5721490383148193,118.75387630637042
1561308600344,,,,117.7534448382603
1561308600364,3.1699230670928955,8.245630264282227,0.871489405632019,73.98899407102527
1561308600417,,,,76.97354085151073
1561308600457,0.9768342971801758,10.448296546936035,0.6703764796257019,79.30261486791755
1561308600487,,,,81.65918722592289
1561308600533,0.7182605266571045,,0.6703764796257019,91.3579192435576
1561308600534,,7.4316020011901855,,
1561308600556,,,,91.37063705579214
1561308600581,,,-0.009576806798577309,
1561308600582,,,,45.83813718038596
1561308600585,1.0438719987869263,,,
1561308600586,,7.967903137207031,,
1561308600628,,,,45.423394433604415
1561308600643,,,-0.23942017555236816,
1561308600644,0.6129156351089478,9.825803756713867,,20.46016463049523
1561308600695,,,,23.32459741178411
1561308600714,,,0.9959878921508789,
1561308600715,1.1013327836990356,11.712434768676758,,92.54674098935499
1561308600764,,,,91.39339524610659
1561308600792,,,0.9289502501487732,
1561308600793,1.455674648284912,11.961431503295898,,82.85153334933199
1561308600841,,,,80.68450557098367
1561308600855,,,1.599326729774475,
1561308600856,1.6376339197158813,8.389283180236816,,99.56448032378711
1561308600914,,,,97.66413728158199
1561308600933,,,1.7142484188079834,117.8230717866594
1561308600934,0.5841852426528931,10.036493301391602,,
1561308600985,,,,116.23450638949785
1561308600993,,,0.40222588181495667,
1561308600994,0.6224924325942993,7.805097579956055,,74.61761053128737
1561308601044,,,,74.71940767067724
1561308601063,,,-0.09576806426048279,
1561308601064,0.5171475410461426,8.006210327148438,,28.03096999523268
1561308601114,,,,27.23608282491034
1561308601142,,,0.6703764796257019,
1561308601143,0.9576807022094727,9.011775016784668,,78.1758453907297
1561308601189,,,,78.83137279632172
1561308601205,0.9864110946655273,11.204863548278809,0.5171475410461426,69.58221066004637
1561308601268,,,,70.46049102504003
1561308601279,,,-0.5267243981361389,354.0771515154651
1561308601280,0.5650315880775452,11.587936401367188,,
1561308601326,,,,354.24624992384173
1561308601344,0.7469909191131592,13.043610572814941,3.179499864578247,125.14271231259528
1561308601395,,,,127.39246734217076
1561308601413,,,0.7852981686592102,
1561308601414,2.097320795059204,8.83939266204834,,75.2333862359099
1561308601464,,,,77.75492815293853
1561308601491,1.2832920551300049,7.422025203704834,0.5267243981361389,75.61169675365858
1561308601542,,,,75.21132472489074
1561308601567,1.2545616626739502,7.508216381072998,0.5841852426528931,77.79146966499809
1561308601621,,,,78.41837174777856
1561308601636,1.091755986213684,,0.3926490843296051,70.78504112383149
1561308601637,,7.95832633972168,,
1561308601678,,,,69.4304916680129
1561308601703,,,-0.7182605266571045,
1561308601707,1.0630255937576294,9.691728591918945,,8.898858809218268
1561308601767,0.9097966551780701,11.961431503295898,-0.019153613597154617,9.92367405266532
1561308601814,,,,43.34910354871198
1561308601853,,,2.9496564865112305,
1561308601854,0.9959878921508789,13.48414421081543,,123.15270937715539
1561308601897,,,,121.70059749923234
1561308601913,-0.23942017555236816,9.41400146484375,0.9481038451194763,147.1230806843967
1561308601968,,,,145.18478228097382
1561308601976,0.05746084079146385,9.710882186889648,1.3311761617660522,130.9159433689269
1561308602024,,,,130.7449564132448
1561308602043,,,1.2258312702178955,
1561308602044,0.5746083855628967,8.130708694458008,,111.05938816859509
1561308602094,,,,110.48007201376211
1561308602113,0.6703764796257019,,0.9864110946655273,101.24149667070031
1561308602114,,7.747636795043945,,
1561308602164,,,,101.46072525249025
1561308602187,0.507570743560791,,0.06703764945268631,46.94452537309047
1561308602188,,9.461885452270508,,
1561308602241,,,,46.314310648562525
1561308602254,,,0.7374141216278076,70.4865960080478
1561308602255,1.6759412288665771,9.825803756713867,,
1561308602305,,,,72.19670462148974
1561308602324,,,0.4118026793003082,
1561308602325,0.028730420395731926,12.899958610534668,,125.05088724939361
1561308602374,,,,125.76241537599054
1561308602394,2.1356279850006104,11.070788383483887,1.8579005002975464,94.24069620540985
1561308602444,,,,93.86542512184184
1561308602464,2.164358377456665,9.710882186889648,1.7046716213226318,92.64211092073583
1561308602514,,,,92.96586188739445
1561308602542,,,1.2066776752471924,
1561308602544,0.5841852426528931,9.289502143859863,,111.40949683526077
1561308602590,,,,114.28120889065761
1561308602613,0.1149216815829277,7.115567684173584,0.3926490843296051,119.80692755184629
1561308602656,,,,120.54275749151012
1561308602677,,,-0.10534487664699554,19.34334332383355
1561308602678,0.22026655077934265,7.268796443939209,,
1561308602745,0.9481038451194763,,-0.4118026793003082,20.052542355923435
1561308602746,,9.787496566772461,,
1561308602798,,,,25.183071394377066
1561308602818,,,0.45010992884635925,
1561308602821,0.45010992884635925,11.961431503295898,,93.98700931925725
1561308602870,,,,93.01342049458526
1561308602887,,,1.1109095811843872,93.58540785643879
1561308602935,,,,90.22813765294575
1561308602955,-0.10534487664699554,10.773907661437988,1.2258312702178955,140.1056077273422
1561308603005,,,,137.08531173674092
1561308603025,,,3.533841609954834,
1561308603026,1.072602391242981,10.917559623718262,,125.81559522886826
1561308603082,,,,126.24765933538492
1561308603103,0.2298433631658554,7.766790390014648,0.9289502501487732,120.16896855899199
1561308603144,,,,119.83916604472876
1561308603164,-0.028730420395731926,7.680599212646484,-0.009576806798577309,235.46483301407739
1561308603214,,,,234.53719770214127
1561308603242,0.4118026793003082,8.580819129943848,-0.2106897532939911,9.800893718371526
1561308603288,,,,8.963385313854644
1561308603308,0.38307225704193115,10.8505220413208,-0.689530074596405,332.4616130024249
1561308603367,,,,333.00609006984894
1561308603388,2.1068975925445557,11.405977249145508,1.6280571222305298,87.30758291479418
1561308603440,,,,88.7502076599601
1561308603448,1.6663644313812256,9.174580574035645,1.2449848651885986,87.41873741334695
1561308603494,,,,88.36715016073822
1561308603514,1.3886369466781616,9.797073364257813,1.2737152576446533,91.94006309670692
1561308603566,,,,95.22789076690844
1561308603585,0.9959878921508789,8.638279914855957,1.8291701078414917,115.31417937997367
1561308603637,,,,116.3633237572443
1561308603659,,,0.181959331035614,
1561308603661,0.5650315880775452,6.27280855178833,,65.07955871387725
1561308603713,,,,67.68805576922932
1561308603729,0.6607996821403503,9.979032516479492,0.47884035110473633,85.3176551114351
1561308603784,,,,85.39882507953155
1561308603801,,,-0.35434186458587646,
1561308603802,1.1109095811843872,10.103530883789063,,30.444905696982346
1561308603856,,,,28.063488525871094
1561308603872,,,,15.959708590144203
1561308603873,0.8044517636299133,11.951854705810547,-0.4213795065879822,
1561308603936,0.6607996821403503,,3.5434184074401855,15.853970431603273
1561308603937,,14.528016090393066,,
1561308603993,,,,131.01123816822692
1561308604019,,,,106.95089277904901
1561308604020,1.1109095811843872,7.7763671875,1.4460978507995605,
1561308604078,0.689530074596405,9.634267807006836,1.6184803247451782,104.00941717146966
1561308604140,,,,112.71316138176275
1561308604150,0.6416460275650024,8.954314231872559,1.436521053314209,111.45868102747403
1561308604196,,,,110.24911599716728
1561308604217,0.038307227194309235,,-0.8140285611152649,299.73584076419763
1561308604218,,7.259219646453857,,
1561308604270,,,,300.57462214522104
1561308604285,,,0.13407529890537262,
1561308604287,0.9576807022094727,7.90086555480957,,47.9540580682696
1561308604345,,,,47.24503662109811
1561308604361,,,-0.028730420395731926,
1561308604363,,,,34.888326242669166
1561308604367,0.9289502501487732,10.78348445892334,,
1561308604420,,,,39.31565827776603
1561308604436,0.6512228846549988,11.520898818969727,-0.6991068720817566,349.80125117756984
1561308604494,,,,352.43272755061076
1561308604497,0.5171475410461426,12.459425926208496,2.451662540435791,
1561308604544,,,,127.20116740389705
1561308604580,1.5131354331970215,10.103530883789063,1.1013327836990356,87.27850679949745
1561308604632,,,,87.85882016194921
1561308604652,,,1.216254472732544,
1561308604654,,,,101.1080962460208
1561308604655,1.091755986213684,7.623138427734375,,
1561308604687,,,,100.13346240240583
1561308604706,,,-0.009576806798577309,
1561308604707,0.17238251864910126,7.5848307609558105,,37.145030989725115
1561308604770,,,,34.342314090229195
1561308604785,,,,307.6613088242299
1561308604786,0.23942017555236816,7.51779317855835,-1.3024457693099976,
1561308604829,,,,308.0157136798835
1561308604845,0.7086837291717529,10.093954086303711,-0.20111294090747833,23.925800907812402
1561308604903,,,,27.032094102706026
1561308604924,0.047884032130241394,12.334927558898926,0.28730419278144836,122.3609538485675
1561308604973,,,,122.88984271675827
1561308604990,2.011129379272461,11.865663528442383,1.9823989868164063,104.01716260598846
1561308605045,,,,103.16072518596059
1561308605069,,,,129.75701053093746
1561308605070,0.2777273952960968,8.791508674621582,1.5131354331970215,
1561308605117,,,,129.33823797254567
1561308605134,-0.14365209639072418,,1.139639973640442,141.95736763398105
1561308605135,,9.490615844726563,,
1561308605191,,,,142.1636530072938
1561308605208,0.8523358106613159,8.504204750061035,1.2449848651885986,108.46666885022574
1561308605253,,,,106.7449215944381
1561308605269,0.689530074596405,8.101978302001953,-0.5937620401382446,357.1362914322065
1561308605327,,,,353.4461551611641
1561308605347,0.7374141216278076,9.193734169006348,0.2585737705230713,60.266351726525954
1561308605401,,,,61.41069528044818
1561308605410,0.07661445438861847,11.683704376220703,0.2585737705230713,111.53013163638153
1561308605459,,,,117.44008941951847
1561308605480,0.7565677165985107,10.955866813659668,0.689530074596405,91.42078430467836
1561308605534,,,,96.8067982765836
1561308605556,,,,115.68378823671972
1561308605557,0.7469909191131592,10.381258964538574,1.2449848651885986,
1561308605607,,,,117.06471588311291
1561308605624,1.5131354331970215,9.988609313964844,1.50355863571167,108.21734645495278
1561308605668,,,,109.73558139423073
1561308605686,0.7469909191131592,7.642292022705078,0.7565677165985107,105.89668040141424
1561308605758,0.09576806426048279,,-0.5554547905921936,107.12585490482806
1561308605759,,8.08282470703125,,
1561308605818,,,,332.31053263307876
1561308605839,0.26815059781074524,8.935160636901855,-0.8331822156906128,340.30126998081965
1561308605890,,,,340.7729850430155
1561308605906,0.5841852426528931,9.605537414550781,-0.6512228846549988,8.170051157794887
1561308605947,,,,9.468662218084717
1561308605965,1.1013327836990356,,0.2968810200691223,78.6262690457354
1561308605966,,11.166556358337402,,
1561308606031,,,,77.53998892994741
1561308606061,-0.8140285611152649,13.417106628417969,2.537853717803955,166.37663263385397
1561308606106,1.0055646896362305,8.609549522399902,1.359906554222107,166.48188584896386
1561308606156,,,,111.11952115404787
1561308606175,,,,149.2386361571598
1561308606176,-0.15322890877723694,10.697293281555176,1.0247182846069336,
1561308606224,,,,146.01562015199252
1561308606244,0.7852981686592102,7.642292022705078,0.7086837291717529,93.64631948345698
1561308606294,,,,88.4794043197474
1561308606314,,,0.08619125932455063,
1561308606317,1.3982137441635132,7.795520782470703,,50.3356801450559
1561308606369,,,,46.455938036097336
1561308606385,1.1779472827911377,9.787496566772461,0.6799532771110535,72.75811885050808
1561308606438,,,,71.24299847749171
1561308606456,,,,60.29226546423695
1561308606457,1.235408067703247,10.831368446350098,0.45010992884635925,
1561308606511,,,,62.48143671587445
1561308606524,,,0.07661445438861847,44.83679388202165
1561308606526,1.1492167711257935,11.951854705810547,,
1561308606574,,,,46.69321197767442
1561308606599,1.1971008777618408,10.8505220413208,1.580173134803772,99.11108553649251
1561308606650,,,,101.29072184404862
1561308606667,0.6416460275650024,10.869675636291504,0.7374141216278076,94.62478506319633
1561308606729,,,,96.75312665008568
1561308606745,,,,88.3369607246068
1561308606746,0.8331822156906128,8.494627952575684,0.6799532771110535,
1561308606792,,,,89.86018853216802
1561308606806,0.8044517636299133,6.6846113204956055,-0.24899697303771973,31.41913655943631
1561308606856,,,,34.0788873543201
1561308606873,,,-0.8619126081466675,
1561308606874,0.1628057211637497,8.571242332458496,,326.8043653883893
1561308606950,,,0.5650315880775452,329.59106890937613
1561308606951,0.43095630407333374,11.884817123413086,,
1561308607016,,,,107.4432674559369
1561308607017,1.6280571222305298,10.362105369567871,-0.10534487664699554,
1561308607081,,,,52.137883614171756
1561308607087,-0.3447650372982025,14.135366439819336,3.706224203109741,150.14803486401198
1561308607144,,,,148.28436310746062
1561308607155,1.3982137441635132,8.494627952575684,1.216254472732544,97.7627515528186
1561308607214,,,,94.3455942506829
1561308607223,,,2.3080103397369385,
1561308607224,0.8331822156906128,9.950302124023438,,122.40759038022037
1561308607293,,,0.09576806426048279,119.85087298896616
1561308607294,0.2298433631658554,7.412448406219482,,
1561308607363,,,,64.77364137114154
1561308607365,,,,35.401478355012216
1561308607366,0.7852981686592102,8.5903959274292,-0.10534487664699554,
1561308607432,,,,36.26029951106045
1561308607441,0.9002198576927185,10.113107681274414,0.507570743560791,74.69475068777353
1561308607494,,,,75.78981442683414
1561308607512,0.7374141216278076,11.865663528442383,1.091755986213684,102.48225517494654
1561308607568,,,,103.64273846587753
1561308607586,,,3.466804027557373,126.15426332867418
1561308607587,0.8810662031173706,12.15296745300293,,
1561308607639,,,,126.80646443214033
1561308607643,,,1.1109095811843872,79.90539272254955
1561308607644,2.2409727573394775,9.27034854888916,,
1561308607709,,,,80.90980619094574
1561308607714,0.8044517636299133,10.716446876525879,1.3215993642807007,108.87670559666913
1561308607779,,,,111.89273954922834
1561308607795,,,0.6703764796257019,
1561308607796,0.7948749661445618,7.805097579956055,,93.51447634190822
1561308607858,,,,94.3184647392996
1561308607859,0.20111294090747833,8.26478385925293,-0.14365209639072418,14.760004645451716
1561308607920,,,,14.892614475734774
1561308607935,,,,19.66685523387116
1561308607936,0.33518823981285095,9.567230224609375,-0.20111294090747833,
1561308607993,,,,20.131526663485488
1561308607995,1.0342950820922852,,-0.06703764945268631,49.64227934051621
1561308607996,,9.816226959228516,,
1561308608057,,,,48.51678710870317
1561308608071,1.3407529592514038,12.574347496032715,1.015141487121582,90.88197800181274
1561308608132,,,,89.80086833922644
1561308608145,,,2.786850690841675,
1561308608147,,,,134.63472182481038
1561308608148,0.4118026793003082,11.501745223999023,,
1561308608196,,,,131.79145067711747
1561308608204,0.8236053586006165,10.553641319274902,2.126051187515259,119.4862774910709
1561308608264,,,,117.577266938809
1561308608274,,,1.8962076902389526,112.82197312543025
1561308608275,0.9576807022094727,8.791508674621582,,
1561308608335,,,,110.23607716604175
1561308608351,,,-0.35434186458587646,
1561308608352,0.6033388376235962,7.173028469085693,,11.43056063263731
1561308608413,,,,11.260886780823114
1561308608430,0.6512228846549988,8.829815864562988,-0.22026655077934265,23.32560486468674
1561308608488,,,0.9576807022094727,21.840812239132447
1561308608489,1.2641384601593018,10.218452453613281,,
1561308608558,,,,80.84068467654521
1561308608559,0.9193734526634216,11.817779541015625,0.2777273952960968,58.331775776200686
1561308608634,,,3.8977603912353516,58.06408017206036
1561308608635,0.7757213711738586,12.124237060546875,,
1561308608697,1.647210717201233,9.069235801696777,0.871489405632019,124.6651181650713
1561308608778,,,,75.79086627596632
1561308608779,0.7086837291717529,9.835380554199219,0.9002198576927185,97.06282791762158
1561308608831,,,,97.32773680458047
1561308608837,,,,92.98237728480757
1561308608838,0.9002198576927185,7.527369976043701,0.9289502501487732,
1561308608894,,,,94.02963652986728
1561308608921,0.7469909191131592,8.169015884399414,-0.4596867263317108,12.322472347666917
1561308608973,,,,12.704396035486525
1561308608989,1.359906554222107,9.979032516479492,0.20111294090747833,55.507540365724594
1561308609042,,,,58.37588513786062
1561308609044,0.9097966551780701,11.78904914855957,1.1971008777618408,102.60252114585211
1561308609117,,,,100.6840781023464
1561308609118,1.8483237028121948,11.022904396057129,0.8044517636299133,73.19034688156484
1561308609193,,,,73.10864415871316
1561308609194,-0.24899697303771973,8.619126319885254,-0.2106897532939911,
1561308609252,,,,264.45016143637383
1561308609274,-0.4596867263317108,9.979032516479492,0.6799532771110535,169.83623273149215
1561308609317,,,,167.9071960645838
1561308609325,0.181959331035614,,0.8810662031173706,124.23839526648561
1561308609326,,8.178592681884766,,
1561308609396,,,,123.99364226776737
1561308609397,0.05746084079146385,7.6997528076171875,-0.10534487664699554,341.53235522965383
1561308609485,,,,339.0570263725495
1561308609486,0.8236053586006165,8.628703117370605,0.9864110946655273,95.27228699651357
1561308609550,,,,94.06420411725674
1561308609551,1.1109095811843872,10.486603736877441,0.24899697303771973,54.91036326621207
1561308609610,1.1300631761550903,,-0.181959331035614,54.295338882398255
1561308609611,,12.660538673400879,,
1561308609664,,,,28.298663891825697
1561308609674,0.4692635238170624,12.48815631866455,2.0015525817871094,117.0062494638176
1561308609738,,,,117.95470319234391
1561308609743,,,1.0247182846069336,
1561308609744,2.9017724990844727,8.437167167663574,,68.2047527497516
1561308609807,,,,68.62398293081782
1561308609837,0.727837324142456,8.054094314575195,0.8523358106613159,91.3962024538555
1561308609878,,,,91.66751122806676
1561308609887,0.7565677165985107,7.115567684173584,0.5267243981361389,76.72647241866383
1561308609944,,,,77.83206147923545
1561308609960,,,-0.4596867263317108,
1561308609962,0.8810662031173706,8.188169479370117,,12.417847401689698
1561308610015,,,,12.300875289511339
1561308610051,0.8427590131759644,10.065223693847656,-0.13407529890537262,31.402173784632566
1561308610086,,,,33.06620594193362
1561308610111,,,,87.56310712183353
1561308610112,,,0.7469909191131592,
1561308610155,,,,88.46406371487154
