timestamp,AccX,AccY,AccZ,CompassSensor
1558049774664,,,,285.0564801622763
1558049774728,-0.42100000381469727,,,
1558049774729,,3.936000108718872,8.734000205993652,285.4497214735506
1558049774772,-0.3540000021457672,4.059999942779541,8.791000366210938,285.978876719119
1558049774783,,,,286.06940404637834
1558049774852,-0.3440000116825104,,,
1558049774853,,4.021999835968018,8.848999977111816,285.5623034816399
1558049774913,-0.2680000066757202,4.031000137329102,8.83899974822998,285.6212958255013
1558049774917,,,,285.65080224271577
1558049774967,-0.1720000058412552,,,
1558049774968,,4.070000171661377,8.560999870300293,286.3667768224624
1558049774981,,,,286.3182756491661
1558049775033,-0.20100000500679016,3.9070000648498535,8.446999549865723,285.72228017237995
1558049775046,,,,286.48370966105296
1558049775099,-0.3540000021457672,,,
1558049775100,,3.628999948501587,8.704999923706055,284.38991517098555
1558049775114,,,,284.61795469680476
1558049775166,-0.5170000195503235,,,
1558049775167,,3.188999891281128,9.154999732971191,280.50036149528427
1558049775179,,,,281.6763971269554
1558049775231,-0.9190000295639038,3.0450000762939453,8.972999572753906,282.53626330194663
1558049775245,,,,283.7684635791628
1558049775297,-0.9570000171661377,2.4700000286102295,9.729999542236328,276.69613054269473
1558049775310,,,,278.3704762856425
1558049775363,-0.7179999947547913,2.499000072479248,9.317999839782715,279.0031225575149
1558049775377,,,,280.3002574431704
1558049775430,0.0,3.0160000324249268,8.560999870300293,283.7641810505532
1558049775447,,,,285.37827769483226
1558049775495,0.4300000071525574,,,
1558049775496,,3.390000104904175,9.692000389099121,283.6347148148356
1558049775509,,,,284.6353375282425
1558049775561,0.32499998807907104,,,
1558049775563,,3.878000020980835,8.513999938964844,290.65226973416014
1558049775575,,,,291.01763704343165
1558049775627,1.090999960899353,,,
1558049775629,,4.453000068664551,9.826000213623047,287.7122967681982
1558049775641,,,,287.3416633830766
1558049775693,0.5360000133514404,,,
1558049775694,,4.999000072479248,7.9770002365112305,296.83122768756886
1558049775707,,,,296.11681039095305
1558049775760,1.2829999923706055,5.229000091552734,8.829999923706055,290.7496750619137
1558049775773,,,,289.0017613514157
1558049775825,0.6600000262260437,6.196000099182129,8.024999618530273,298.87267560783727
1558049775842,,,,296.8017349307327
1558049775891,1.3980000019073486,,,
1558049775893,,6.0329999923706055,8.043999671936035,290.9793743237012
1558049775905,,,,288.02833645128385
1558049775957,0.5839999914169312,,,
1558049775958,,7.296999931335449,7.258999824523926,301.06534391632977
1558049775971,,,,297.3309584781928
1558049776023,0.8330000042915344,,,
1558049776024,,6.90500020980835,6.310999870300293,296.36578444657835
1558049776037,,,,291.9286066937929
1558049776090,-0.5839999914169312,,,
1558049776091,,7.34499979019165,5.056000232696533,315.60660492342265
1558049776102,,,,310.9260265493747
1558049776155,0.28700000047683716,,,
1558049776157,,7.728000164031982,5.880000114440918,297.0322743057882
1558049776177,,,,290.81202102865757
1558049776221,1.781000018119812,,2.010999917984009,
1558049776222,,8.418000221252441,,269.078079051921
1558049776235,,,,264.01086415952614
1558049776287,-0.29600000381469727,,,
1558049776288,,9.87399959564209,-18.952999114990234,144.0993012973187
1558049776301,,,,145.11377563436236
1558049776353,-1.0720000267028809,,,
1558049776355,,8.96399974822998,1.934000015258789,338.4086860335117
1558049776367,,,,332.65962701665273
1558049776419,1.5800000429153442,,,
1558049776422,,8.581000328063965,-2.3269999027252197,167.79038616939823
1558049776433,,,,164.87433252590967
1558049776485,0.8230000138282776,,-0.04699999839067459,
1558049776486,,8.532999992370605,,209.968952616092
1558049776500,,,,206.35923862087532
1558049776551,1.2059999704360962,,,
1558049776552,,9.173999786376953,-0.4779999852180481,189.40172306280954
1558049776564,,,,186.9424451502548
1558049776617,1.4839999675750732,10.534000396728516,-0.2770000100135803,196.29014642568586
1558049776632,,,,194.4311601789051
1558049776683,1.8380000591278076,12.152999877929688,-1.1579999923706055,176.41743418550124
1558049776697,,,,175.57912408753057
1558049776752,0.20999999344348907,11.520999908447266,2.8440001010894775,270.81724329009216
1558049776768,,,,270.6812678840956
1558049776815,1.49399995803833,,,
1558049776816,,7.767000198364258,2.930000066757202,239.64235429537558
1558049776832,,,,239.86497748118296
1558049776881,2.2790000438690186,9.682000160217285,-0.29600000381469727,194.4856787488602
1558049776895,,,,194.53783407336232
1558049776947,-0.37299999594688416,,,
1558049776949,,9.911999702453613,2.010999917984009,290.32075967260437
1558049776961,,,,290.4593032297289
1558049777013,1.062999963760376,,,
1558049777014,,7.421999931335449,0.20100000500679016,211.2209809324687
1558049777029,,,,210.44460698989167
1558049777081,1.7039999961853027,7.958000183105469,0.11400000005960464,203.00468683267195
1558049777093,,,,202.41786429994113
1558049777145,1.7999999523162842,,,
1558049777146,,,-0.14300000667572021,
1558049777147,,8.380000114440918,,195.84216797840304
1558049777159,,,,195.1158183413072
1558049777211,1.3309999704360962,,,
1558049777212,,8.64799976348877,-0.8519999980926514,173.12363009977597
1558049777227,,,,172.34538468536635
1558049777277,1.7139999866485596,,0.11400000005960464,
1558049777278,,11.3100004196167,,202.36438391873992
1558049777291,,,,202.6271139753536
1558049777343,1.503000020980835,,,
1558049777344,,14.489999771118164,1.8669999837875366,242.7193135353313
1558049777357,,,,243.1074048839714
1558049777409,-0.41100001335144043,,,
1558049777410,,7.604000091552734,5.123000144958496,245.6015782329958
1558049777426,,,,246.30762854787838
1558049777475,2.5850000381469727,,,
1558049777478,,8.878000259399414,-1.1770000457763672,178.4605623323055
1558049777489,,,,178.46143659651926
1558049777542,1.350000023841858,9.404000282287598,3.619999885559082,243.86846554242925
1558049777555,,,,244.8185994974914
1558049777607,-1.3209999799728394,,,
1558049777608,,8.015999794006348,1.1100000143051147,335.27118399675294
1558049777621,,,,335.44175772599027
1558049777674,0.33500000834465027,7.642000198364258,0.02800000086426735,205.85995179254735
1558049777687,,,,205.27691318461677
1558049777739,-1.1299999952316284,,,
1558049777740,,7.767000198364258,0.37299999594688416,4.456610921634592
1558049777754,,,,3.4000807619936495
1558049777805,-1.0529999732971191,,,
1558049777806,,8.819999694824219,-0.02800000086426735,26.385404961900065
1558049777819,,,,24.988037050174682
1558049777871,-0.7179999947547913,,,
1558049777872,,12.23900032043457,-1.0149999856948853,81.54128450047011
1558049777884,,,,80.51798555901883
1558049777938,1.4739999771118164,,,
1558049777939,,13.770999908447266,-0.8899999856948853,169.40211956822446
1558049777952,,,,169.6272426032681
1558049778003,-3.055000066757202,,,
1558049778004,,,7.010000228881836,250.508789113894
1558049778005,,8.465999603271484,,
1558049778017,,,,252.63843526691483
1558049778069,2.8340001106262207,,,
1558049778070,,10.246999740600586,-2.240999937057495,165.1582361689504
1558049778084,,,,164.38038690551267
1558049778135,-1.4359999895095825,,,
1558049778136,,9.355999946594238,0.8230000138282776,345.14502157413926
1558049778149,,,,344.68012987092425
1558049778201,-0.5170000195503235,,,
1558049778202,,6.742000102996826,0.8519999980926514,311.7008910201451
1558049778215,,,,311.9927962297985
1558049778267,-0.5450000166893005,,,
1558049778270,,6.866000175476074,-0.28700000047683716,49.80437680499358
1558049778280,,,,49.90739996333946
1558049778334,0.0860000029206276,7.8429999351501465,-0.23899999260902405,129.1575384878638
1558049778348,,,,129.2731326093771
1558049778399,0.8519999980926514,,,
1558049778400,,10.821999549865723,0.5170000195503235,225.36139862774104
1558049778414,,,,224.71860952495115
1558049778465,-0.20100000500679016,,,
1558049778466,,13.694999694824219,-0.8330000042915344,97.47493421138347
1558049778478,,,,97.22707347659286
1558049778531,-3.1700000762939453,,,
1558049778533,,12.699000358581543,8.121000289916992,263.7522595371711
1558049778545,,,,264.7037868508239
1558049778597,0.9570000171661377,7.747000217437744,0.4779999852180481,218.95853341296095
1558049778611,,,,219.44973329731158
1558049778665,2.1059999465942383,8.819999694824219,2.115999937057495,229.59666232828255
1558049778677,,,,229.57751047784984
1558049778729,-0.4300000071525574,,,
1558049778730,,7.182000160217285,0.9279999732971191,305.4197466065638
1558049778744,,,,304.5986178494503
1558049778795,-0.9760000109672546,,,
1558049778798,,7.382999897003174,0.3630000054836273,355.53056625197235
1558049778809,,,,354.7174407690188
1558049778862,-1.1579999923706055,8.64799976348877,0.04699999839067459,15.67804524915124
1558049778876,,,,15.171364741046773
1558049778927,-1.944000005722046,8.9350004196167,-1.1579999923706055,58.70527784077365
1558049778940,,,,58.85385494578895
1558049778993,-1.9049999713897705,,,
1558049778994,,11.147000312805176,-0.621999979019165,40.47287332317916
1558049779009,,,,40.34224937039727
1558049779059,1.253999948501587,,,
1558049779061,,13.331000328063965,-1.7619999647140503,145.6034728770956
1558049779073,,,,145.09122234972298
1558049779125,-0.1340000033378601,,,
1558049779126,,9.395000457763672,5.831999778747559,255.08656631074416
1558049779140,,,,254.19632628451382
1558049779191,-0.621999979019165,,,
1558049779192,,11.09000015258789,-1.2640000581741333,85.32241575328663
1558049779204,,,,85.08375528330805
1558049779257,-2.2309999465942383,,,
1558049779258,,9.031000137329102,1.2920000553131104,337.6012347302111
1558049779271,,,,338.24177328566947
1558049779324,-0.6119999885559082,6.263000011444092,0.23899999260902405,352.6778587710543
1558049779339,,,,354.0914902169671
1558049779389,0.03799999877810478,,,
1558049779390,,7.296999931335449,-0.3440000116825104,114.74751956567272
1558049779403,,,,115.87175504267847
1558049779455,-0.11400000005960464,,-0.5929999947547913,100.34273939857502
1558049779456,,8.244999885559082,,
1558049779469,,,,100.70322995277911
1558049779521,-0.5450000166893005,,,
1558049779523,,11.38700008392334,-0.8610000014305115,80.24330267135758
1558049779535,,,,81.04100729471253
1558049779590,-1.1770000457763672,14.854000091552734,-2.2309999465942383,90.20867844400038
1558049779601,,,,90.85503290553703
1558049779653,-2.815000057220459,,,
1558049779654,,10.77400016784668,8.321999549865723,259.0388689343504
1558049779668,,,,259.8857714102969
1558049779719,2.115999937057495,6.78000020980835,-1.0049999952316284,175.43795773776475
1558049779736,,,,175.83259240762973
1558049779785,-0.1720000058412552,,,
1558049779787,,9.336999893188477,1.0149999856948853,293.94101264971044
1558049779799,,,,294.21499885807634
1558049779851,-1.3020000457763672,,,
1558049779853,,7.440999984741211,1.49399995803833,321.23047340298444
1558049779866,,,,321.1935596456151
1558049779919,-0.4300000071525574,7.5269999504089355,-0.1720000058412552,44.777982538173205
1558049779931,,,,44.68178273880818
1558049779983,-1.312000036239624,,,
1558049779984,,8.39900016784668,0.1809999942779541,14.975200000536688
1558049779997,,,,15.706129279471043
1558049780049,-0.9480000138282776,,,
1558049780050,,9.059000015258789,-0.11400000005960464,31.078269138717644
1558049780063,,,,30.996515189447166
1558049780115,-1.6660000085830688,,,
1558049780117,,12.4399995803833,0.4020000100135803,8.505950469666004
1558049780128,,,,9.04979062194991
1558049780181,-0.02800000086426735,13.369000434875488,3.1019999980926514,277.63779506318605
1558049780194,,,,277.8048956412304
1558049780250,-0.1340000033378601,8.062999725341797,6.02400016784668,250.9861715255537
1558049780260,,,,250.94863963606446
1558049780313,3.74399995803833,,,
1558049780315,,11.406000137329102,-0.9480000138282776,185.84139133529197
1558049780328,,,,185.60952007334845
1558049780379,-1.7230000495910645,8.581000328063965,2.0969998836517334,316.5642418412881
1558049780393,,,,316.193727984477
1558049780445,-0.05700000002980232,,,
1558049780446,,5.526000022888184,0.24899999797344208,301.7545987960433
1558049780458,,,,301.48481315401693
1558049780511,0.9480000138282776,,,
1558049780512,,6.923999786376953,-0.3919999897480011,178.77811148719772
1558049780525,,,,177.82498590927912
1558049780577,0.5360000133514404,,,
1558049780579,,9.510000228881836,-0.32499998807907104,169.46838606355195
1558049780591,,,,168.5334424492039
1558049780644,0.3160000145435333,11.913000106811523,-0.28700000047683716,157.56572958567253
1558049780660,,,,156.91713482208812
1558049780709,-1.1390000581741333,13.866999626159668,-1.9149999618530273,87.83038608443445
1558049780722,,,,87.52922255336108
1558049780775,-2.624000072479248,,7.9770002365112305,
1558049780776,,10.831000328063965,,254.4491867177769
1558049780788,,,,254.03255883878444
1558049780841,4.5289998054504395,9.164999961853027,-1.0429999828338623,182.7636261330142
1558049780854,,,,182.13899167303816
1558049780909,-0.6029999852180481,8.675999641418457,2.700000047683716,277.1071781571353
1558049780926,,,,275.6490420523643
1558049780973,-0.1809999942779541,,0.1720000058412552,
1558049780974,,7.230000019073486,,330.0591895845213
1558049780986,,,,328.957029278913
1558049781039,-0.5170000195503235,,,
1558049781040,,8.27400016784668,-0.5070000290870667,63.349574249950535
1558049781052,,,,62.99501913013518
1558049781105,-1.3589999675750732,,,
1558049781106,,8.475000381469727,-0.45899999141693115,39.424671512014015
1558049781118,,,,39.37002316846474
1558049781174,-0.1809999942779541,9.069000244140625,-0.8610000014305115,97.71758351183735
1558049781185,,,,97.21941000434413
1558049781239,-0.6119999885559082,12.104999542236328,-1.8669999837875366,95.32892975530046
1558049781255,,,,95.0552372450689
1558049781303,-0.14300000667572021,,,
1558049781316,,,,254.65104612850746
1558049781369,2.183000087738037,,,
1558049781370,,8.666999816894531,-0.1720000058412552,186.08731912654753
1558049781383,,,,185.55722814506282
1558049781435,1.378999948501587,10.659000396728516,-0.3919999897480011,176.2285794549504
1558049781449,,,,176.0354080448441
1558049781507,-2.680999994277954,7.8429999351501465,0.7850000262260437,350.7897571353891
1558049781515,,,,351.1668373653135
1558049781567,0.6029999852180481,,-0.5450000166893005,
1558049781568,,6.1579999923706055,,153.2589264837643
1558049781581,,,,153.19510519615972
1558049781633,0.8709999918937683,,,
1558049781634,,7.6519999504089355,-0.05700000002980232,186.85544220060706
1558049781648,,,,186.6811630937451
1558049781700,0.9480000138282776,10.458000183105469,-0.6600000262260437,159.02001346375164
1558049781712,,,,158.7950816740048
1558049781766,0.8330000042915344,12.506999969482422,-0.3919999897480011,166.94277335377797
1558049781783,,,,167.13508416004885
1558049781834,-1.4259999990463257,,5.97599983215332,
1558049781835,,14.710000038146973,,265.5724298188986
1558049781846,,,,266.0180655112961
1558049781897,-0.5070000290870667,,,
1558049781898,,6.866000175476074,3.562000036239624,255.23418035908645
1558049781912,,,,255.70992352534535
1558049781963,2.499000072479248,,,
1558049781965,,9.74899959564209,-0.4300000071525574,181.88550969256073
1558049781978,,,,181.88391142829494
1558049782029,-0.746999979019165,,1.5410000085830688,294.8786610189698
1558049782030,,8.321999549865723,,
1558049782043,,,,294.41424913654396
1558049782096,-0.44999998807907104,7.1539998054504395,0.3630000054836273,329.8969384407876
1558049782109,,,,329.58023622935247
1558049782165,-0.8999999761581421,8.494000434875488,-0.4399999976158142,42.897296780399415
1558049782175,,,,43.75711514406646
1558049782227,-1.4459999799728394,,,
1558049782228,,8.359999656677246,-0.3630000054836273,32.995311993443465
1558049782241,,,,33.31878975253528
1558049782293,-0.49799999594688416,,,
1558049782294,,10.458000183105469,0.2290000021457672,346.88784252483737
1558049782311,,,,347.3067499794653
1558049782359,0.765999972820282,,,
1558049782360,,12.928999900817871,-2.6429998874664307,129.11150301285792
1558049782373,,,,128.8763122789777
1558049782426,-3.0350000858306885,10.399999618530273,6.664999961853027,258.56303014544307
1558049782439,,,,259.6334505619783
1558049782491,3.7920000553131104,,,
1558049782493,,7.823999881744385,-0.9760000109672546,178.96751263288218
1558049782504,,,,178.78623941231004
1558049782558,-0.07599999755620956,10.64900016784668,1.684999942779541,275.13155276989824
1558049782575,,,,275.92328780791865
1558049782623,-0.7749999761581421,7.890999794006348,0.9480000138282776,315.56792897724745
1558049782636,,,,315.89356849121157
1558049782689,0.746999979019165,,,
1558049782690,,6.578999996185303,-0.4020000100135803,167.2846926236288
1558049782703,,,,166.6622711449439
1558049782755,0.6890000104904175,,,
1558049782757,,7.593999862670898,-0.12399999797344208,182.69270144867278
1558049782768,,,,182.45237441253676
1558049782827,0.8519999980926514,9.777999877929688,-0.9760000109672546,148.26798431383094
1558049782834,,,,147.82045665903337
1558049782888,0.746999979019165,,,
1558049782889,,12.890000343322754,-0.4020000100135803,165.14868756449073
1558049782906,,,,165.2280953437813
1558049782953,-1.5410000085830688,,,
1558049782954,,13.991999626159668,3.687000036239624,286.3702943698849
1558049782968,,,,286.29263511902184
1558049783019,-1.9249999523162842,6.885000228881836,3.13100004196167,275.9064855425604
1558049783032,,,,275.9288953932272
1558049783085,2.815000057220459,10.218000411987305,-1.7519999742507935,164.97265992920117
1558049783099,,,,164.20360794941442
1558049783152,-1.0529999732971191,8.71500015258789,1.7710000276565552,297.7383109602924
1558049783169,,,,296.67250092144695
1558049783217,0.0949999988079071,,,
1558049783218,,6.85699987411499,-0.8040000200271606,114.04955619476743
1558049783232,,,,113.51656238288552
1558049783283,-0.5649999976158142,8.723999977111816,-0.8709999918937683,74.47789218162563
1558049783297,,,,73.72935125991637
1558049783349,-1.36899995803833,8.484999656677246,-0.4300000071525574,32.88472440059178
1558049783363,,,,32.2063329367532
1558049783415,0.04699999839067459,,,
1558049783416,,9.557000160217285,-0.746999979019165,107.02151693506693
1558049783430,,,,106.61514117001869
1558049783484,-0.3440000116825104,12.795000076293945,-3.111999988555908,106.67624404233362
1558049783499,,,,106.63151996364837
1558049783547,-3.878000020980835,,5.650000095367432,
1558049783548,,9.86400032043457,,263.6122133384291
1558049783562,,,,264.4482967947304
1558049783613,3.9639999866485596,,,
1558049783614,,8.675999641418457,-1.1200000047683716,174.64381164296736
1558049783631,,,,174.77876252058846
1558049783679,0.1720000058412552,11.166000366210938,1.7519999742507935,263.1328160209643
1558049783696,,,,263.69750191059507
1558049783745,-1.090999960899353,,,
1558049783746,,7.728000164031982,1.1579999923706055,312.3001547424491
1558049783759,,,,312.9204622775859
1558049783812,0.9190000295639038,6.493000030517578,-0.7080000042915344,156.02665573923687
1558049783825,,,,156.2961750038856
1558049783880,0.4300000071525574,7.73799991607666,0.1340000033378601,205.7201651409939
1558049783898,,,,205.92944213716305
1558049783943,0.9860000014305115,9.767999649047852,-0.9760000109672546,149.43922515270472
1558049783957,,,,149.41650794352526
1558049784009,0.4399999976158142,,,
1558049784010,,12.909000396728516,-0.621999979019165,137.6912314783911
1558049784024,,,,137.39500617408763
1558049784079,-0.7749999761581421,,,
1558049784080,,14.154999732971191,4.423999786376953,270.8009806096784
1558049784088,,,,270.77781943820287
1558049784141,-1.2640000581741333,6.8379998207092285,3.3610000610351562,268.255102728637
1558049784155,,,,268.65316615346535
1558049784207,2.3940000534057617,9.652999877929688,-0.41100001335144043,179.78568733317968
1558049784220,,,,179.6271996236787
1558049784273,-1.0240000486373901,,1.5219999551773071,
1558049784274,,8.484999656677246,,302.1625318442223
1558049784287,,,,302.1978370920421
1558049784339,-0.4779999852180481,6.875999927520752,0.4300000071525574,324.1453488388412
1558049784352,,,,324.44298799230285
1558049784405,-0.4880000054836273,8.062999725341797,-0.06700000166893005,18.60006847797439
1558049784423,,,,19.5549442918678
1558049784482,-1.465000033378601,8.407999992370605,-0.4399999976158142,33.32977611181519
1558049784485,,,,34.111064375500064
1558049784537,-0.621999979019165,,,
1558049784538,,11.788999557495117,-0.2770000100135803,37.3338618146139
1558049784553,,,,38.15865496821709
1558049784603,1.4739999771118164,14.91100025177002,-1.5509999990463257,149.4077243202526
1558049784616,,,,150.4180459022809
1558049784669,-3.303999900817871,,,
1558049784670,,8.906000137329102,6.1579999923706055,265.4111895431621
1558049784683,,,,267.08283736138776
1558049784749,5.429999828338623,8.043999671936035,-2.86299991607666,170.48130311746482
1558049784802,-2.115999937057495,,,
1558049784803,,10.659000396728516,2.9590001106262207,304.54317378886276
1558049784821,,,,305.86831586520987
1558049784867,-0.10499999672174454,7.382999897003174,0.0,16.134846593294412
1558049784881,,,,16.343076862973305
1558049784934,0.9380000233650208,6.923999786376953,-0.23899999260902405,181.65149375121769
1558049784953,,,,181.33733237015383
1558049784999,0.6600000262260437,,,
1558049785000,,7.9770002365112305,-0.3440000116825104,169.1147598494637
1558049785012,,,,168.8692418695584
1558049785070,0.5170000195503235,10.640000343322754,-1.1970000267028809,133.29018542631502
1558049785087,,,,132.96330623301657
1558049785131,0.621999979019165,13.522000312805176,-2.0490000247955322,128.15944294444984
1558049785145,,,,127.93085017330785
1558049785202,-1.5609999895095825,,6.177000045776367,272.30104041557496
1558049785203,,12.774999618530273,,
1558049785222,,,,272.7323190503371
1558049785263,-0.7559999823570251,,2.4130001068115234,
1558049785264,,5.390999794006348,,277.4028843670618
1558049785281,,,,277.3198634177003
1558049785342,2.068000078201294,9.883000373840332,-0.8140000104904175,174.3689784911444
1558049785344,,,,173.84265777408154
1558049785399,-1.2350000143051147,8.27400016784668,1.4359999895095825,316.1793060400445
1558049785418,,,,316.7975679335249
1558049785461,-0.07599999755620956,7.382999897003174,-0.20999999344348907,86.3689100171593
1558049785480,,,,86.306625522118
1558049785528,-0.9860000014305115,8.369999885559082,-0.5740000009536743,50.397213319288596
1558049785541,,,,50.297595010243924
1558049785593,-1.4359999895095825,,,
1558049785594,,8.083000183105469,-0.6320000290870667,45.786084308721286
1558049785609,,,,46.0834024432919
1558049785665,-0.8809999823570251,11.588000297546387,0.257999986410141,358.3688786823279
1558049785672,,,,357.9365595109344
1558049785728,2.5850000381469727,13.427000045776367,-3.505000114440918,148.03772497653148
1558049785749,,,,148.0922708672432
1558049785791,-3.562000036239624,,,
1558049785792,,9.854000091552734,5.994999885559082,274.9757971360653
1558049785811,,,,275.5932598974128
1558049785857,4.28000020980835,7.382999897003174,-2.1740000247955322,171.09677146357467
1558049785874,,,,171.17328324265716
1558049785923,-0.4020000100135803,11.119000434875488,2.0969998836517334,286.32942934808074
1558049785939,,,,286.3169779132238
1558049786002,-1.972000002861023,7.767000198364258,1.7039999961853027,322.8485144815092
1558049786003,,,,323.50616949102766
1558049786059,0.9570000171661377,6.866000175476074,-0.9480000138282776,154.57940695600288
1558049786080,,,,154.71243172027803
1558049786121,0.2290000021457672,,,
1558049786122,,7.872000217437744,-0.24899999797344208,149.40813413160282
1558049786137,,,,149.08939652379502
1558049786187,0.4020000100135803,9.682000160217285,-0.20100000500679016,169.26869865297743
1558049786201,,,,169.6628415492222
1558049786259,-0.008999999612569809,12.755999565124512,0.06700000166893005,293.2475776942249
1558049786266,,,,293.1573577254782
1558049786323,-1.2059999704360962,,3.371000051498413,
1558049786324,,13.416999816894531,,292.94910525768455
1558049786344,,,,293.3444639276015
1558049786386,-1.1009999513626099,,,
1558049786387,,6.991000175476074,4.6539998054504395,266.39227791554276
1558049786408,,,,266.89853836701326
1558049786451,2.2019999027252197,10.017000198364258,-1.6080000400543213,162.40683106559416
1558049786469,,,,162.31552509676945
1558049786517,-0.5550000071525574,9.279999732971191,1.062999963760376,308.2396960733357
1558049786531,,,,307.54267526853596
1558049786583,-0.02800000086426735,6.693999767303467,0.8519999980926514,280.96447284938665
1558049786596,,,,281.1941379602283
1558049786649,-0.640999972820282,8.303000450134277,0.11400000005960464,5.290885658466266
1558049786665,,,,5.623381401696577
1558049786716,-1.2640000581741333,8.39900016784668,-0.8999999761581421,58.29106784874739
1558049786736,,,,58.66552613980417
1558049786781,-0.8330000042915344,9.835000038146973,0.04699999839067459,13.360726842079657
1558049786798,,,,13.522329117842162
1558049786847,-0.23899999260902405,14.279000282287598,-2.2119998931884766,106.28748333515483
1558049786862,,,,106.94206134445218
1558049786913,-4.48199987411499,9.529000282287598,7.374000072479248,270.47418337864997
1558049786928,,,,271.6515850481551
1558049786991,2.7100000381469727,6.348999977111816,0.14300000667572021,196.4780722505095
1558049786994,,,,196.87104035421703
1558049787053,0.6990000009536743,,1.6080000400543213,
1558049787054,,10.486000061035156,,257.0040599579552
1558049787059,,,,257.69027540348804
1558049787117,-1.8669999837875366,8.03499984741211,1.4259999990463257,334.71968378731486
1558049787125,,,,334.53266467010343
1558049787183,0.8230000138282776,6.828000068664551,-0.4880000054836273,168.8194771112657
1558049787190,,,,168.74617552109314
1558049787251,0.6510000228881836,7.488999843597412,0.1809999942779541,211.78570097304532
1558049787257,,,,211.82903169313994
1558049787315,1.062999963760376,,,
1558049787316,,9.57699966430664,-1.090999960899353,155.28183727062532
1558049787337,,,,154.97038064447275
1558049787380,0.04699999839067459,13.27299976348877,0.4880000054836273,280.8211140088972
1558049787402,,,,280.85710910582316
1558049787444,-1.1679999828338623,14.107000350952148,2.7669999599456787,302.1908976198454
1558049787465,,,,301.6908389801412
1558049787508,-2.3459999561309814,7.556000232696533,4.75,278.62367822836404
1558049787529,,,,278.3632362851223
1558049787574,3.9839999675750732,9.652999877929688,-2.183000087738037,170.62322078803936
1558049787587,,,,170.11366135519972
1558049787639,-1.0529999732971191,,,
1558049787640,,8.743000030517578,2.4609999656677246,295.75415466678203
1558049787654,,,,294.8583685269457
1558049787708,0.20999999344348907,7.144000053405762,-0.0949999988079071,171.6182017651918
1558049787730,,,,171.46400341448958
1558049787771,-0.5170000195503235,,,
1558049787773,,8.284000396728516,-0.3440000116825104,52.07109119427821
1558049787797,,,,51.59562465068069
1558049787837,-1.187000036239624,8.072999954223633,-0.28700000047683716,32.848411699869416
1558049787853,,,,32.690907537608894
1558049787918,-0.05700000002980232,,-0.5170000195503235,100.84434849122079
1558049787919,,10.946000099182129,,
1558049787987,-0.4020000100135803,,,
1558049788036,-3.246000051498413,9.940999984741211,6.013999938964844,276.72414797867015
1558049788057,,,,277.21444627805033
1558049788104,3.4570000171661377,7.756999969482422,-0.20100000500679016,189.73869727570127
1558049788128,,,,190.04585088267675
1558049788177,0.8140000104904175,11.291000366210938,2.0490000247955322,255.30454496791594
1558049788180,,,,256.47819003337753
1558049788200,-2.499000072479248,,,
1558049788201,,10.572999954223633,3.25600004196167,308.01767394417527
1558049788208,-2.9779999256134033,9.557000160217285,1.6369999647140503,342.5414029814019
1558049788228,-2.441999912261963,7.814000129699707,0.4880000054836273,8.5984611131056
1558049788252,-0.15299999713897705,7.144000053405762,0.06700000166893005,353.4831128878762
1558049788276,0.14300000667572021,6.2820000648498535,-0.5070000290870667,126.50663278795514
1558049788300,0.6790000200271606,5.947000026702881,-0.5929999947547913,158.85652605577823
1558049788307,1.1009999513626099,6.4070000648498535,-0.04699999839067459,193.38366870741356
1558049788324,,,,193.49114856419294
1558049788348,0.8519999980926514,,,
1558049788349,0.6700000166893005,6.578999996185303,-0.06700000166893005,191.97057087002963
1558049788371,0.5450000166893005,7.355000019073486,0.06700000166893005,203.3037398352917
1558049788394,0.4880000054836273,7.690000057220459,-0.29600000381469727,203.1392005781861
1558049788419,0.5450000166893005,8.656999588012695,-0.5839999914169312,152.44445374599698
1558049788427,0.9670000076293945,9.567000389099121,-0.6990000009536743,163.2133807839243
1558049788444,,,,162.65678866845997
1558049788448,0.8230000138282776,10.60099983215332,-0.5550000071525574,164.04406839078123
1558049788468,0.257999986410141,12.086000442504883,-0.0949999988079071,176.72546205669047
1558049788493,-0.1340000033378601,12.814000129699707,0.11400000005960464,336.2228735273985
1558049788518,-0.0949999988079071,13.819000244140625,-0.8709999918937683,103.57476442325753
1558049788528,-0.4690000116825104,14.54699993133545,-2.308000087738037,102.27286206556141
1558049788564,-1.2920000553131104,,0.6029999852180481,
1558049788565,,14.873000144958496,,350.63485356765506
1558049788567,-1.656000018119812,14.269000053405762,3.763000011444092,297.1556548429553
1558049788589,-1.8860000371932983,11.223999977111816,5.229000091552734,296.3716242583187
1558049788614,-1.8960000276565552,8.868000030517578,5.304999828338623,273.39734041887533
1558049788638,-1.934000015258789,8.10200023651123,4.242000102996826,281.11768082265917
1558049788664,1.3980000019073486,7.5269999504089355,2.4509999752044678,242.03831635432437
1558049788668,1.9630000591278076,8.503999710083008,0.4020000100135803,202.74757119155595
1558049788689,2.068000078201294,9.949999809265137,-0.6029999852180481,178.68252981995258
1558049788713,1.781000018119812,10.715999603271484,-0.4690000116825104,179.99153557438552
1558049788737,0.621999979019165,9.777999877929688,1.2059999704360962,250.4332335612953
1558049788747,-0.7850000262260437,9.20300006866455,1.7710000276565552,298.45570621938634
1558049788789,-1.49399995803833,7.9770002365112305,1.819000005722046,311.81212748096794
1558049788790,-1.350000023841858,6.78000020980835,1.2059999704360962,323.42866050432633
1558049788814,-0.7850000262260437,6.568999767303467,1.1970000267028809,308.09891562925804
1558049788827,-0.257999986410141,6.78000020980835,0.9959999918937683,291.08851391644885
1558049788841,,,,291.1333677687283
1558049788861,-0.257999986410141,7.086999893188477,0.0949999988079071,352.6242742294682
1558049788867,-0.6790000200271606,7.51800012588501,-0.1340000033378601,26.09905952623103
1558049788908,-1.2059999704360962,8.121000289916992,-0.2770000100135803,29.561683690124255
1558049788931,-1.4459999799728394,8.388999938964844,-0.7369999885559082,46.62708208613037
1558049788956,-1.4259999990463257,8.532999992370605,-0.5450000166893005,39.274304897436195
1558049788967,-1.3020000457763672,8.552000045776367,-0.7850000262260437,50.48338981604661
1558049788979,,,,51.005714872445026
1558049789004,-1.1579999923706055,9.039999961853027,-1.034000039100647,62.19077118555538
1558049789007,-1.034000039100647,9.54800033569336,-0.5070000290870667,43.48640742650218
1558049789029,-0.9480000138282776,10.60099983215332,-0.14300000667572021,23.863171488217972
1558049789053,-0.7850000262260437,12.229999542236328,0.0860000029206276,24.699929425699793
1558049789076,-1.4550000429153442,,,
1558049789077,,12.956999778747559,-0.45899999141693115,34.951283511343775
1558049789099,-1.0720000267028809,,,
1558049789100,,13.14900016784668,-2.308000087738037,87.65090920361399
1558049789106,,,,88.12545025657903
1558049789107,0.8330000042915344,14.107000350952148,-2.1449999809265137,130.9871685815918
1558049789144,0.0860000029206276,13.770999908447266,2.308000087738037,276.2897889285923
1558049789148,-2.259999990463257,11.95199966430664,5.697999954223633,284.9691220427918
1558049789169,-4.423999786376953,8.446999549865723,7.0960001945495605,272.3771970248206
1558049789191,-2.499000072479248,7.861999988555908,6.464000225067139,274.74074300596845
1558049789214,0.1340000033378601,7.890999794006348,3.7820000648498535,266.0728914397638
1558049789237,2.2690000534057617,9.395000457763672,0.1809999942779541,198.73463014849835
1558049789247,3.619999885559082,,,
1558049789248,,10.72599983215332,-1.406999945640564,176.33283546244147
1558049789285,1.1299999952316284,10.831000328063965,-1.1970000267028809,152.68514961234823
1558049789288,-0.5360000133514404,10.295000076293945,0.5839999914169312,327.86756629497177
1558049789309,-1.9249999523162842,9.317999839782715,2.240999937057495,328.3587012925253
1558049789332,-1.5889999866485596,8.331999778747559,2.4609999656677246,308.3558878364014
1558049789355,-1.2450000047683716,7.172999858856201,1.5219999551773071,318.97427408992706
1558049789379,-0.9959999918937683,6.368000030517578,0.9670000076293945,328.4095622961798
1558049789387,-0.5550000071525574,5.439000129699707,-0.5740000009536743,69.2887720729243
1558049789407,-0.9760000109672546,,0.6510000228881836,
1558049789408,,6.885000228881836,,342.0721467873072
1558049789428,-0.3440000116825104,6.8470001220703125,0.01899999938905239,15.316938270374521
1558049789434,,,,15.171923109011402
1558049789450,-0.3540000021457672,7.382999897003174,-0.24899999797344208,54.783383219352345
1558049789473,1.0429999828338623,7.163000106811523,-0.24899999797344208,184.04849399892032
1558049789497,0.4399999976158142,7.679999828338623,0.4399999976158142,240.2703355480449
1558049789500,,,,239.53503836313632
1558049789521,0.07599999755620956,,-0.20100000500679016,128.48134976003254
1558049789522,,8.217000007629395,,
1558049789527,0.02800000086426735,,,
1558049789528,,9.213000297546387,-0.29600000381469727,113.50780608036956
1558049789547,-0.12399999797344208,,,
1558049789548,,9.949999809265137,-0.5070000290870667,95.19917665163774
1558049789568,-0.29600000381469727,,-0.45899999141693115,94.79742492465755
1558049789569,,10.706999778747559,,
1558049789592,-0.746999979019165,12.057000160217285,0.04699999839067459,13.587609504608167
1558049789616,-0.2680000066757202,12.727999687194824,0.37299999594688416,321.48279425130306
1558049789627,-0.10499999672174454,13.531999588012695,-0.6990000009536743,99.96089767302544
1558049789643,,,,99.46663103373749
1558049789647,-1.4550000429153442,,,
1558049789648,,15.130999565124512,-2.240999937057495,79.7044348967894
1558049789668,-2.5369999408721924,,,
1558049789669,,14.843999862670898,2.193000078201294,330.6634359298248
1558049789690,-2.115999937057495,,6.185999870300293,287.81173066213523
1558049789691,,14.73900032043457,,
1558049789700,,,,287.5167143013149
1558049789715,-3.1600000858306885,10.668000221252441,7.010000228881836,280.92003563864654
1558049789740,-2.98799991607666,8.753000259399414,4.788000106811523,292.2359720366327
1558049789747,-1.0049999952316284,7.488999843597412,3.371000051498413,284.08882677199307
1558049789767,,,,283.96530280085335
1558049789768,1.2059999704360962,5.515999794006348,0.3440000116825104,208.02703421240903
1558049789792,1.8669999837875366,8.829999923706055,-0.9760000109672546,168.9867484440393
1558049789818,1.5219999551773071,10.333000183105469,-0.5550000071525574,175.6210477886561
1558049789827,0.746999979019165,10.371999740600586,1.503000020980835,253.4745392137836
1558049789830,,,,252.9423718547912
1558049789848,-0.008999999612569809,9.538000106811523,1.7039999961853027,278.532802561457
1558049789867,-0.9760000109672546,,,
1558049789870,,8.121000289916992,1.2730000019073486,316.84208369144045
1558049789892,-0.8519999980926514,7.307000160217285,1.1100000143051147,317.07064231163656
1558049789915,-0.8519999980926514,6.703999996185303,0.765999972820282,316.50047178010226
1558049789939,-0.9480000138282776,6.626999855041504,0.45899999141693115,346.9022695919117
1558049789963,-1.0240000486373901,6.7230000495910645,0.4399999976158142,349.73580857381097
1558049789967,-1.1009999513626099,7.0,0.4779999852180481,349.9584565190541
1558049789988,-1.2059999704360962,8.015999794006348,0.3160000145435333,359.9210005779764
1558049790012,-1.2640000581741333,8.321999549865723,0.5070000290870667,351.83816385222934
1558049790037,-1.7330000400543213,8.359999656677246,-0.0860000029206276,20.354283037981702
1558049790047,-2.068000078201294,8.484999656677246,0.20999999344348907,12.209302089535356
1558049790086,-2.078000068664551,8.52299976348877,0.32499998807907104,8.482999326507468
1558049790089,-1.5800000429153442,8.581000328063965,-0.6320000290870667,43.01850190231585
1558049790094,,,,43.957366045247454
1558049790111,-1.1299999952316284,9.604999542236328,-0.8230000138282776,57.42861986224989
1558049790136,-0.7179999947547913,10.803000450134277,-0.3630000054836273,45.44298000104942
1558049790160,-0.8420000076293945,11.741000175476074,-0.1720000058412552,29.531484008709015
1558049790187,-1.809999942779541,13.062999725341797,0.11400000005960464,30.648930277679824
1558049790188,-1.6469999551773071,13.14900016784668,-1.1490000486373901,57.64257553800053
1558049790213,0.1720000058412552,14.135000228881836,-1.225000023841858,118.41515356505113
1558049790238,-0.1809999942779541,13.76200008392334,2.5280001163482666,119.30033242110648
1558049790263,-2.3269999027252197,,7.182000160217285,279.6368070181412
1558049790264,,11.616999626159668,,
1558049790267,-3.7920000553131104,9.37600040435791,7.058000087738037,280.1426576582615
1558049790288,-2.134999990463257,8.130000114440918,5.315000057220459,280.95628345257177
1558049790297,,,,281.3310354417629
1558049790314,1.312000036239624,7.795000076293945,1.4550000429153442,239.7575249451603
1558049790339,4.126999855041504,8.878000259399414,-2.2119998931884766,172.66565225554825
1558049790347,4.548999786376953,11.491999626159668,-3.371000051498413,165.6812647348333
1558049790365,,,,166.40810614554937
1558049790369,1.3880000114440918,11.175999641418457,-0.20999999344348907,190.64032322727803
1558049790390,-0.7179999947547913,,,
1558049790391,,10.562999725341797,2.5759999752044678,295.78980825424946
1558049790416,-2.815000057220459,9.213000297546387,3.734999895095825,308.37617349823637
1558049790424,,,,308.46600073110574
1558049790427,-3.265000104904175,8.369999885559082,2.2690000534057617,336.77865968054084
1558049790466,-1.656000018119812,7.288000106811523,0.6600000262260437,358.90160974537014
1558049790468,-0.4880000054836273,5.955999851226807,0.257999986410141,352.44738257524864
1558049790492,-0.02800000086426735,5.09499979019165,-0.3160000145435333,108.2458624947376
1558049790518,0.24899999797344208,,-0.4020000100135803,144.86029365388487
1558049790519,,6.263000011444092,,
1558049790543,0.6890000104904175,6.664999961853027,-0.3160000145435333,176.89146297427848
1558049790547,0.8040000200271606,6.9720001220703125,-0.28700000047683716,181.51137925058413
1558049790569,,,,180.88532411126073
1558049790599,0.37299999594688416,8.130000114440918,-0.3160000145435333,161.16665995761662
1558049790626,0.37299999594688416,8.96399974822998,-0.4690000116825104,150.50918794656556
1558049790629,0.4300000071525574,10.017000198364258,-0.5070000290870667,151.67751912485292
1558049790654,0.16200000047683716,10.621000289916992,-0.765999972820282,124.62117272795143
1558049790680,-0.33500000834465027,,-0.3630000054836273,
1558049790681,,11.26200008392334,,69.17713263094043
1558049790687,-0.7749999761581421,12.210000038146973,0.29600000381469727,359.04483016780716
1558049790689,,,,358.36071340461854
1558049790707,-0.1809999942779541,,-0.9279999732971191,
1558049790708,,12.880999565124512,,101.66232511603232
1558049790735,-0.05700000002980232,,,
1558049790736,,13.494000434875488,-2.7190001010894775,116.17750163068493
1558049790762,-0.9760000109672546,13.944000244140625,-3.2750000953674316,103.59388212274445
1558049790767,-1.531999945640564,13.560999870300293,3.2750000953674316,302.02620126838883
1558049790789,-1.3980000019073486,13.982000350952148,6.482999801635742,276.9487519193368
1558049790815,-2.8340001106262207,10.11299991607666,7.066999912261963,271.2374911693447
1558049790841,-2.6429998874664307,8.704999923706055,4.710999965667725,269.3164868049003
1558049790847,-1.3020000457763672,6.828000068664551,3.13100004196167,284.55823152270216
1558049790869,1.5509999990463257,7.010000228881836,1.340000033378601,229.1419766352348
1558049790896,2.5850000381469727,9.519000053405762,-1.340000033378601,227.95785405958634
1558049790922,2.134999990463257,10.744999885559082,-1.3209999799728394,167.23405360112235
1558049790927,0.5740000009536743,10.572999954223633,0.7559999823570251,245.5261251332347
1558049790947,-0.6119999885559082,,1.9630000591278076,
1558049790948,,10.227999687194824,,294.4171792876979
1558049790952,,,,292.9269617843953
1558049790976,-0.8899999856948853,8.762999534606934,1.1200000047683716,318.07788689344375
1558049791003,-0.24899999797344208,6.9720001220703125,0.1809999942779541,338.6991978845744
1558049791007,0.01899999938905239,6.359000205993652,-0.04699999839067459,127.88962315147765
1558049791030,-0.10499999672174454,6.099999904632568,-0.3440000116825104,126.35386877697863
1558049791058,-0.5740000009536743,,,
1558049791059,,6.636000156402588,-0.5740000009536743,64.97720149897543
1558049791067,-0.6790000200271606,7.249000072479248,-0.3160000145435333,42.78218760231715
1558049791087,-0.7559999823570251,,,42.56958430402216
1558049791088,,7.747000217437744,-0.41100001335144043,46.753990416003774
1558049791113,-1.0049999952316284,8.321999549865723,-0.5070000290870667,45.937577904512125
1558049791138,-1.350000023841858,8.704999923706055,-0.8330000042915344,53.66911640344023
1558049791147,-1.7430000305175781,9.050000190734863,-0.3919999897480011,32.497162391612335
1558049791163,,,,31.84522425042917
1558049791188,-2.000999927520752,8.303000450134277,-0.6600000262260437,41.10316317978794
1558049791213,-0.5170000195503235,9.194000244140625,-1.225000023841858,88.06289255397087
1558049791217,,,,87.60227142653434
1558049791227,-0.5929999947547913,10.678000450134277,-0.6700000166893005,65.37846145233533
1558049791265,-0.765999972820282,12.104999542236328,-0.640999972820282,56.43047650751174
1558049791268,-1.1490000486373901,13.331000328063965,-1.1579999923706055,63.99937112682892
1558049791292,-0.5170000195503235,13.531999588012695,-2.2119998931884766,63.949592708157866
1558049791320,0.8140000104904175,14.67199993133545,0.0,192.05448657417242
1558049791346,-0.05700000002980232,13.63700008392334,3.552999973297119,269.47146379716787
1558049791349,-3.8589999675750732,11.425000190734863,6.234000205993652,269.7990191791942
1558049791373,-5.056000232696533,9.355999946594238,6.071000099182129,270.5520953465123
1558049791400,-3.572000026702881,7.901000022888184,4.940999984741211,272.22234297595804
1558049791427,2.546999931335449,7.172999858856201,0.5450000166893005,199.8752990606472
1558049791431,6.329999923706055,,,
1558049791432,,9.020999908447266,-3.2079999446868896,170.27131578162195
1558049791454,6.482999801635742,10.0649995803833,-3.562000036239624,168.8437379431976
1558049791486,1.9249999523162842,,-1.1299999952316284,
1558049791487,,10.428999900817871,,165.6264866176898
1558049791489,-1.5410000085830688,10.715999603271484,1.6180000305175781,319.9691423689582
1558049791513,-2.739000082015991,9.940999984741211,3.447000026702881,299.76139933207185
1558049791542,-2.930000066757202,8.675999641418457,2.4230000972747803,316.364048996715
1558049791547,-1.4170000553131104,7.756999969482422,1.809999942779541,317.5263388726815
1558049791622,0.4020000100135803,6.607999801635742,-0.5550000071525574,310.48572181962436
1558049791679,0.41100001335144043,7.642000198364258,0.3630000054836273,144.8283966704609
1558049791754,0.6990000009536743,10.256999969482422,-0.8899999856948853,233.74988179651388
1558049791811,-0.03799999877810478,13.416999816894531,-0.9190000295639038,146.85765953325003
1558049791893,-2.0390000343322754,14.576000213623047,5.947000026702881,106.45442681884828
1558049791949,-0.9279999732971191,5.534999847412109,3.936000108718872,278.7421478595179
1558049792012,1.9919999837875366,10.131999969482422,-0.41100001335144043,182.85842915869398
1558049792035,,,,182.4443011289378
1558049792075,,,,181.60248031373374
1558049792092,-1.0049999952316284,,1.2350000143051147,314.27264848795164
1558049792093,,8.187999725341797,,
1558049792148,-0.4399999976158142,6.828000068664551,0.5070000290870667,312.8223841761991
1558049792206,,,,319.6558006105947
1558049792207,-1.0720000267028809,8.244999885559082,0.0860000029206276,9.083735808351207
1558049792286,-1.7519999742507935,8.244999885559082,-0.1340000033378601,9.251136060945441
1558049792343,-0.8610000014305115,11.060999870300293,-0.45899999141693115,21.219446024674312
1558049792427,0.8999999761581421,13.387999534606934,-1.2920000553131104,43.512754881225476
1558049792484,-3.111999988555908,9.031000137329102,6.617000102996826,141.14430191518272
1558049792541,3.6579999923706055,9.604999542236328,-1.8380000591278076,258.3956700202102
1558049792627,-2.2790000438690186,8.71500015258789,2.614000082015991,302.0633643276629
1558049792682,-0.4690000116825104,5.918000221252441,0.1720000058412552,302.33965230977907
1558049792737,0.5360000133514404,7.010000228881836,0.02800000086426735,351.9231331130516
1558049792820,0.2290000021457672,8.293000221252441,-0.0860000029206276,172.43727805045972
1558049792876,0.6320000290870667,10.706999778747559,-1.2350000143051147,171.898990841971
1558049792933,0.23899999260902405,13.215999603271484,-1.8380000591278076,134.79982115742794
1558049792999,-1.6369999647140503,,,
1558049793000,,13.819000244140625,6.550000190734863,116.87255534100376
1558049793073,,,,263.79394418167567
1558049793074,-0.257999986410141,6.664999961853027,1.5509999990463257,275.3814762218182
1558049793135,0.9959999918937683,11.031999588012695,1.3589999675750732,236.96005704604153
1558049793197,-0.02800000086426735,,,235.2052858256169
1558049793198,,7.010000228881836,0.6029999852180481,276.2871797963294
1558049793274,,,,275.19510084993607
1558049793275,-0.3440000116825104,6.750999927520752,-0.5450000166893005,
1558049793330,-1.4259999990463257,,-0.8140000104904175,71.1322469600999
1558049793331,,8.675999641418457,,
1558049793418,-1.1009999513626099,8.484999656677246,-0.4880000054836273,46.73655294305274
1558049793478,-0.41100001335144043,12.36400032043457,-1.0820000171661377,36.6399077647514
1558049793536,0.9760000109672546,13.819000244140625,1.1579999923706055,231.57133831922494
1558049793594,-3.303999900817871,8.532999992370605,4.999000072479248,232.030777823935
1558049793658,,,,261.5502133789481
1558049793659,4.375999927520752,10.878999710083008,-2.4030001163482666,164.6541135666901
1558049793741,-2.680999994277954,9.595999717712402,2.308000087738037,165.08550831466812
1558049793801,-0.3919999897480011,,,307.72094320587325
1558049793802,,5.955999851226807,-0.06700000166893005,
1558049793862,1.1490000486373901,7.326000213623047,-0.14300000667572021,20.633429454265524
1558049793922,,,,181.90952463768247
1558049793923,0.5450000166893005,8.59000015258789,-0.6320000290870667,143.64349545324708
1558049794001,-0.3440000116825104,11.041999816894531,-0.3630000054836273,143.93612807804712
1558049794058,0.06700000166893005,14.968999862670898,-2.815000057220459,58.78114758207414
1558049794124,-2.546999931335449,10.314000129699707,5.401000022888184,265.89318916270076
1558049794149,,,,266.29570587086795
1558049794187,1.781000018119812,7.901000022888184,0.7369999885559082,266.49340569639395
1558049794268,0.7179999947547913,9.998000144958496,1.8380000591278076,206.26472246314063
1558049794327,0.0,7.230000019073486,1.350000023841858,247.46384297057813
1558049794386,-0.746999979019165,7.853000164031982,-0.640999972820282,57.295014531895276
1558049794387,,,,57.0849827998228
1558049794473,-1.1200000047683716,8.178000450134277,-0.14300000667572021,57.64589500993719
1558049794532,-1.1009999513626099,8.848999977111816,-0.02800000086426735,21.701479795158775
1558049794590,-0.5170000195503235,13.130000114440918,-0.5740000009536743,62.36149176385982
1558049794649,-0.9480000138282776,14.097000122070312,6.377999782562256,63.67916502834953
1558049794735,-0.6890000104904175,6.9720001220703125,4.051000118255615,264.45316671960865
1558049794787,2.125999927520752,,,258.35902605531317
1558049794788,,9.979000091552734,-0.9279999732971191,
1558049794847,-2.240999937057495,8.619000434875488,2.5369999408721924,172.43335752187613
1558049794913,0.621999979019165,6.252999782562256,-0.14300000667572021,305.0273556538412
1558049795004,0.29600000381469727,7.182000160217285,0.37299999594688416,180.98902004323986
1558049795066,0.7179999947547913,9.154999732971191,-0.6029999852180481,241.9855326524185
1558049795129,-0.20999999344348907,13.090999603271484,0.5450000166893005,156.0361906833182
1558049795193,-1.6080000400543213,14.73900032043457,-0.06700000166893005,302.5734974963928
1558049795255,-2.7860000133514404,8.187999725341797,5.620999813079834,17.912744834248713
1558049795319,3.0160000324249268,7.948999881744385,-1.8480000495910645,261.9622855217642
1558049795381,-1.36899995803833,10.371999740600586,2.996999979019165,165.31268040646273
1558049795448,-0.20100000500679016,6.961999893188477,-0.3630000054836273,76.46174794681247
1558049795478,,,,75.93609658828831
1558049795509,-0.7080000042915344,7.901000022888184,-0.5450000166893005,75.42622296674688
1558049795572,,,,53.75593493798027
1558049795573,-1.465000033378601,8.484999656677246,0.257999986410141,1.1676625668006295
1558049795660,-0.4690000116825104,9.807000160217285,-0.7080000042915344,72.0542815169166
1558049795723,-0.8040000200271606,12.78499984741211,-1.7999999523162842,70.9249165678442
1558049795787,-2.0390000343322754,12.23900032043457,5.880000114440918,84.13666759261571
1558049795849,2.3550000190734863,8.015999794006348,-0.12399999797344208,269.8470968807619
1558049795911,1.406999945640564,10.994000434875488,0.29600000381469727,185.17102192863354
1558049795972,-1.1490000486373901,7.928999900817871,0.5839999914169312,199.2653904885217
1558049796039,0.7269999980926514,,-0.5360000133514404,338.69237452559355
1558049796040,,6.4070000648498535,,
1558049796101,0.8610000014305115,7.51800012588501,-0.4399999976158142,155.0327129508383
1558049796180,0.5260000228881836,9.470999717712402,-0.8809999823570251,163.05019390427435
1558049796243,-0.0949999988079071,12.383000373840332,0.0949999988079071,132.87241007554204
1558049796304,-1.0720000267028809,14.565999984741211,2.0490000247955322,297.50727298142755
1558049796365,-2.375,7.642000198364258,5.343999862670898,296.87996791748606
1558049796431,,,,259.5744104067927
1558049796432,2.5850000381469727,10.151000022888184,-1.350000023841858,162.90658234678565
1558049796497,-1.1579999923706055,8.696000099182129,2.0969998836517334,291.25063528658825
1558049796515,,,,290.7377085704878
1558049796580,0.008999999612569809,6.589000225067139,0.6029999852180481,270.59587002890294
1558049796645,-1.0240000486373901,8.552000045776367,-0.8899999856948853,270.7573835122062
1558049796649,-1.090999960899353,8.59000015258789,-1.2640000581741333,65.35904322452495
1558049796678,-1.187000036239624,8.637999534606934,-1.2730000019073486,63.39153893221112
1558049796711,-1.7519999742507935,8.753000259399414,-0.8040000200271606,38.95662596894971
1558049796744,-1.3589999675750732,,-0.2290000021457672,19.14346466796229
1558049796745,,8.637999534606934,,
1558049796749,-0.9570000171661377,9.395000457763672,-0.2290000021457672,22.28133211984158
1558049796777,,,,22.516504070701558
1558049796778,-0.7850000262260437,10.399999618530273,-0.24899999797344208,26.363744724494666
1558049796811,-0.6990000009536743,12.36400032043457,-0.4300000071525574,40.78772455334928
1558049796843,0.14300000667572021,12.814000129699707,-3.0160000324249268,78.07494300612115
1558049796877,1.9630000591278076,14.00100040435791,-1.1970000267028809,158.46937727324357
1558049796889,-3.4760000705718994,,7.239999771118164,261.58210353218294
1558049796890,,10.755000114440918,,
1558049796910,-4.328000068664551,8.418000221252441,6.664999961853027,262.5300449965215
1558049796943,-0.765999972820282,,2.4509999752044678,
1558049796944,,7.928999900817871,,277.8221760198305
1558049796949,3.0829999446868896,7.909999847412109,0.06700000166893005,187.40260865501682
1558049796976,,,,187.75802437866764
1558049796977,5.486999988555908,10.027000427246094,-1.9919999837875366,171.56142923281064
1558049797011,3.390000104904175,10.640000343322754,-2.1449999809265137,161.34495521571063
1558049797044,,,,207.06716040759045
1558049797045,-2.6619999408721924,11.031999588012695,1.934000015258789,322.138099675747
1558049797079,-3.2170000076293945,10.008000373840332,2.872999906539917,306.41429728179855
1558049797089,-0.6790000200271606,7.105999946594238,1.1970000267028809,298.94536248098456
1558049797092,,,,300.05032316415253
1558049797113,-0.14300000667572021,,0.4690000116825104,
1558049797114,,6.177000045776367,,292.9411412571123
1558049797149,0.2290000021457672,5.802999973297119,-0.16200000047683716,155.77116568314338
1558049797150,0.4399999976158142,6.215000152587891,-0.5070000290870667,144.20098915368186
1558049797157,,,,144.76658345847227
1558049797182,0.640999972820282,,-0.6029999852180481,
1558049797183,,6.636000156402588,,150.64327822035125
1558049797190,0.8899999856948853,6.923999786376953,-0.0949999988079071,184.04804320643507
1558049797216,0.746999979019165,7.355000019073486,0.0860000029206276,195.7450563487838
1558049797250,,,,195.32031420505734
1558049797251,0.5070000290870667,7.776000022888184,-0.4779999852180481,132.4301553267837
1558049797285,0.8519999980926514,,,
1558049797286,,9.307999610900879,-1.0149999856948853,144.33931414475296
1558049797297,0.3059999942779541,10.793000221252441,-0.765999972820282,144.51920766711277
1558049797320,0.03799999877810478,11.866000175476074,-0.29600000381469727,108.91780284490511
1558049797329,-0.2680000066757202,,0.4690000116825104,308.2402527337531
1558049797330,,12.842000007629395,,
1558049797355,0.1809999942779541,13.427000045776367,-0.8519999980926514,115.44544195544296
1558049797390,0.23899999260902405,14.968999862670898,-1.7519999742507935,114.11517382212378
1558049797424,-1.5800000429153442,14.996999740600586,5.611999988555908,274.4450641167986
1558049797458,-1.5219999551773071,12.267999649047852,7.0960001945495605,260.1511652406869
1558049797469,-2.2880001068115234,,,
1558049797470,,7.019999980926514,3.25600004196167,281.74505418849236
1558049797490,,,,281.54215658900796
1558049797491,0.008999999612569809,5.888999938964844,1.2059999704360962,268.0146117679609
1558049797523,3.0739998817443848,7.382999897003174,-1.350000023841858,169.13313305833103
1558049797529,2.7960000038146973,8.552000045776367,-1.9630000591278076,160.0789933134271
1558049797560,1.781000018119812,9.73900032043457,-0.8899999856948853,165.4489153596478
1558049797592,-0.1809999942779541,10.055999755859375,2.0390000343322754,273.05014141279605
1558049797625,-1.3589999675750732,8.159000396728516,1.809999942779541,302.37773744459105
1558049797659,-0.6510000228881836,7.46999979019165,0.9380000233650208,305.8501509771122
1558049797692,-0.2680000066757202,,-0.20999999344348907,
1558049797693,,7.0,-0.24899999797344208,48.43086674403901
1558049797726,-0.5170000195503235,7.939000129699707,-0.4300000071525574,51.01924889228542
1558049797730,-0.5740000009536743,8.503999710083008,-0.4779999852180481,51.207642585067276
1558049797758,-0.8040000200271606,8.552000045776367,-0.4880000054836273,43.10970200320844
1558049797770,-1.0720000267028809,8.475000381469727,-0.4300000071525574,33.54357127812034
1558049797792,-1.4359999895095825,,,
1558049797793,,8.293000221252441,-0.2290000021457672,19.869915050348368
1558049797826,-0.9860000014305115,8.293000221252441,-0.6029999852180481,44.4361725513491
1558049797830,-0.4690000116825104,9.222000122070312,-0.8610000014305115,74.21572220052383
1558049797860,-0.12399999797344208,,,
1558049797861,,10.227999687194824,-0.5929999947547913,88.4388466564559
1558049797894,-0.14300000667572021,11.520999908447266,0.1720000058412552,315.83358576992055
1558049797928,-0.4399999976158142,12.996000289916992,-0.8230000138282776,72.19869903672736
1558049797930,0.6320000290870667,12.765999794006348,-2.375,120.3819065365563
1558049797962,1.9049999713897705,13.609000205993652,-0.8140000104904175,120.67415667076284
1558049797969,-0.5839999914169312,,4.539000034332275,
1558049797970,,12.621999740600586,,262.61159745521144
1558049797996,-2.6519999504089355,10.60099983215332,6.4070000648498535,259.80332419682566
1558049798031,-2.872999906539917,8.762999534606934,6.043000221252441,256.506330412758
1558049798065,2.8529999256134033,8.22599983215332,-0.9480000138282776,171.46617541464565
1558049798100,4.616000175476074,9.729999542236328,-2.2309999465942383,166.56449015678598
1558049798110,1.253999948501587,10.96500015258789,1.0820000171661377,221.78696938977663
1558049798135,-0.8610000014305115,10.60099983215332,2.815000057220459,276.53971921070143
1558049798170,,,,276.5616167971805
1558049798171,-2.2119998931884766,9.529000282287598,1.8960000276565552,311.0056494796241
1558049798206,-0.5550000071525574,6.761000156402588,0.20999999344348907,344.37816550017067
1558049798209,0.1809999942779541,,-0.6600000262260437,117.91877639730964
1558049798210,,5.880000114440918,,
1558049798242,0.640999972820282,5.7270002365112305,-0.9190000295639038,118.1827222275956
1558049798249,0.8330000042915344,6.617000102996826,-0.9480000138282776,144.28896199019164
1558049798278,0.7369999885559082,7.066999912261963,-0.5170000195503235,154.8388312010583
1558049798280,,,,154.82612704920209
1558049798314,0.746999979019165,7.440999984741211,-0.2290000021457672,170.7269850219102
1558049798350,0.7179999947547913,8.005999565124512,-0.45899999141693115,156.63245253748198
1558049798351,,8.159000396728516,,
1558049798387,1.1200000047683716,9.059000015258789,-0.45899999141693115,165.9220152426979
1558049798390,0.8140000104904175,9.79699993133545,-0.9760000109672546,140.86145012127417
1558049798424,0.19099999964237213,10.706999778747559,-0.9760000109672546,112.50854940479667
1558049798460,-0.45899999141693115,12.152999877929688,0.11400000005960464,351.71431800842504
1558049798469,-0.1340000033378601,13.302000045776367,-2.9110000133514404,105.46118070974504
1558049798496,0.01899999938905239,14.968999862670898,-3.13100004196167,105.06539173791032
1558049798534,-1.2730000019073486,14.317000389099121,4.289999961853027,273.8765738118001
1558049798571,-3.3320000171661377,10.621000289916992,6.664999961853027,263.1260268129293
1558049798608,-1.2059999704360962,6.2820000648498535,1.656000018119812,294.0259597124179
1558049798609,,,,294.5481345046545
1558049798611,2.4800000190734863,6.0329999923706055,-1.7999999523162842,157.3987314604657
1558049798644,4.2230000495910645,,-2.700000047683716,
1558049798645,,8.03499984741211,,160.42262013057044
1558049798650,3.3610000610351562,9.960000038146973,-1.9630000591278076,160.94698741353068
1558049798682,0.37299999594688416,10.592000007629395,1.4739999771118164,254.27225749751688
1558049798689,-1.4550000429153442,10.371999740600586,2.7960000038146973,286.26699458887765
1558049798718,-1.809999942779541,8.753000259399414,2.240999937057495,297.25636598226714
1558049798753,-0.3919999897480011,,0.9190000295639038,
1558049798754,,7.948999881744385,,292.135950746427
1558049798789,0.1720000058412552,,,
1558049798790,-0.28700000047683716,7.010000228881836,-0.621999979019165,115.08964374119864
1558049798826,-0.4690000116825104,7.890999794006348,-0.3630000054836273,63.0364032463163
1558049798829,-0.4779999852180481,8.456000328063965,-0.640999972820282,63.2031349941455
1558049798864,-0.45899999141693115,8.456000328063965,-0.7749999761581421,70.12073692515605
1558049798901,-0.6320000290870667,,-0.8610000014305115,
1558049798902,,8.331999778747559,,65.4210545119995
1558049798909,-1.3589999675750732,8.244999885559082,-0.8140000104904175,44.22752393258355
1558049798938,-1.1679999828338623,8.178000450134277,-0.28700000047683716,22.75723408799871
1558049798940,,,,23.429708900468768
1558049798977,-0.9480000138282776,8.972999572753906,-0.28700000047683716,25.844471055107988
1558049799014,-0.2680000066757202,11.232999801635742,-0.3440000116825104,60.206649042990875
1558049799049,-0.2290000021457672,12.822999954223633,-2.624000072479248,102.77843949811495
1558049799050,1.340000033378601,13.187000274658203,-3.0260000228881836,130.41512657822489
1558049799084,1.253999948501587,,,
1558049799085,,13.914999961853027,-0.5929999947547913,163.3683304554352
1558049799120,-1.2640000581741333,12.420999526977539,5.583000183105469,265.3695185590359
1558049799129,-3.5329999923706055,8.284000396728516,6.7129998207092285,255.49140528322914
1558049799156,-0.37299999594688416,,,256.3138010404337
1558049799157,,8.130000114440918,2.8340001106262207,
1558049799193,3.0350000858306885,8.552000045776367,-0.20999999344348907,183.9116716494666
1558049799228,2.3359999656677246,10.428999900817871,-1.7039999961853027,167.99783267486984
1558049799263,0.06700000166893005,11.098999977111816,0.6890000104904175,270.89859084310706
1558049799269,-2.078000068664551,9.366000175476074,2.3459999561309814,317.2673483446383
1558049799298,-1.5130000114440918,,,
1558049799299,,7.995999813079834,1.5509999990463257,314.4451824814808
1558049799335,-0.5649999976158142,,0.6320000290870667,
1558049799336,,6.798999786376953,,318.53224132231674
1558049799372,0.2290000021457672,6.348999977111816,-0.45899999141693115,131.5329280170325
1558049799407,0.8330000042915344,7.125,-0.20999999344348907,177.97561890123458
1558049799410,0.8040000200271606,7.440999984741211,-0.0860000029206276,185.46577191207632
1558049799444,0.6029999852180481,7.861999988555908,-0.02800000086426735,188.82957177641595
1558049799481,0.4880000054836273,8.168999671936035,-0.8330000042915344,136.5056199215036
1558049799489,0.8040000200271606,,-0.7850000262260437,151.1110368954704
1558049799490,,9.279999732971191,,
1558049799517,0.6029999852180481,10.03600025177002,-0.5360000133514404,152.77850463792396
1558049799554,-0.3059999942779541,11.520999908447266,-0.24899999797344208,53.15807481955068
1558049799590,-0.1720000058412552,13.043999671936035,-0.3440000116825104,77.69194697860183
1558049799599,,,,115.72364922071591
1558049799625,-0.5740000009536743,,,
1558049799626,,15.130999565124512,-0.5740000009536743,60.259664971328505
1558049799637,-1.5219999551773071,,4.434000015258789,284.861983695471
1558049799652,-1.4259999990463257,13.10099983215332,4.999000072479248,277.7084465399607
1558049799665,,,,277.54721309441334
1558049799689,-2.240999937057495,10.083999633789062,6.02400016784668,268.7234829509706
1558049799690,,8.418000221252441,,
1558049799726,0.06700000166893005,5.478000164031982,2.6429998874664307,257.8055553362995
1558049799729,1.4550000429153442,,0.20999999344348907,197.78938660888195
1558049799730,,6.320000171661377,,
1558049799731,,,,197.5609850830367
1558049799765,2.068000078201294,7.853000164031982,-1.312000036239624,163.7214648959032
1558049799769,1.3309999704360962,,-0.4020000100135803,
1558049799770,,9.902000427246094,,176.11611356007697
1558049799803,0.5170000195503235,10.333000183105469,1.5130000114440918,255.96848033637616
1558049799809,-0.3540000021457672,10.227999687194824,2.7669999599456787,274.55681967199837
1558049799841,-0.7179999947547913,8.848999977111816,1.6180000305175781,295.8906833181014
1558049799849,-0.28700000047683716,7.909999847412109,1.1200000047683716,288.77348276897555
1558049799880,0.008999999612569809,6.817999839782715,0.3630000054836273,289.0407617315765
1558049799919,-0.06700000166893005,6.789999961853027,0.0949999988079071,316.6561898478948
1558049799958,-0.7269999980926514,7.823999881744385,-0.05700000002980232,330.74504986021725
1558049799997,-0.9860000014305115,8.27400016784668,-0.8709999918937683,61.91647078848763
1558049800035,-1.1009999513626099,8.359999656677246,-0.4880000054836273,41.95944350546495
1558049800075,,,,42.12063938497181
1558049800076,-0.6600000262260437,9.538000106811523,-0.5450000166893005,
1558049800155,-0.8140000104904175,13.234999656677246,-1.0820000171661377,56.4702589443325
1558049800194,,,,71.67698869735432
1558049800234,-0.7269999980926514,13.14900016784668,5.372000217437744,268.7197809884405
1558049800273,,,,269.6265569026514
1558049800274,1.5889999866485596,7.574999809265137,0.37299999594688416,203.51966943571256
1558049800349,2.183000087738037,,,203.59305298815514
1558049800350,,10.428999900817871,-1.1299999952316284,
1558049800426,,,,168.9782107075768
1558049800427,-1.7139999866485596,8.27400016784668,1.5509999990463257,321.82930682337076
1558049800466,,,,320.9492813450442
1558049800506,0.2290000021457672,6.1479997634887695,-0.8519999980926514,124.8925498040544
1558049800546,0.5450000166893005,7.61299991607666,-0.621999979019165,124.78685945683762
1558049800589,,,,147.13469200598573
1558049800623,0.6510000228881836,9.173999786376953,-0.12399999797344208,181.85118116179228
1558049800661,,,,181.6870926971718
1558049800670,0.3630000054836273,12.498000144958496,0.02800000086426735,196.53361534884016
1558049800737,-1.503000020980835,14.86299991607666,0.9959999918937683,195.87314971647822
1558049800813,-2.3269999027252197,8.10200023651123,5.372000217437744,334.5051321775591
1558049800856,,,,260.43710428010036
1558049800894,2.5850000381469727,9.184000015258789,-2.193000078201294,156.76419322619319
1558049800933,-0.8610000014305115,,,156.4364944101943
1558049800934,,9.692000389099121,2.5179998874664307,
1558049800985,,,,282.763264639012
1558049801010,-0.6890000104904175,6.953000068664551,0.20100000500679016,352.7888587365771
1558049801074,-0.5929999947547913,8.121000289916992,-0.9670000076293945,352.54458897374263
1558049801117,,,,75.6249814715942
1558049801150,-1.350000023841858,8.513999938964844,-0.621999979019165,40.916432638068954
1558049801191,,,,40.86020993591603
1558049801197,-0.5170000195503235,,,
1558049801198,,9.489999771118164,-0.2770000100135803,39.749563120263986
1558049801268,-0.49799999594688416,13.234999656677246,-2.3940000534057617,39.756297686785615
1558049801315,,,,98.45467703649757
1558049801344,-2.078000068664551,11.684000015258789,5.381999969482422,271.571794778271
1558049801383,,,,272.71484742644014
1558049801422,1.628000020980835,7.660999774932861,-0.29600000381469727,180.4830806106603
1558049801462,-0.5740000009536743,11.26200008392334,1.5509999990463257,180.86624056271967
1558049801542,-0.7749999761581421,,,294.658189342751
1558049801543,,7.699999809265137,1.034000039100647,
1558049801582,,,,312.21217849084474
1558049801593,-0.0949999988079071,6.656000137329102,-0.04699999839067459,39.51296878250935
1558049801663,0.4300000071525574,7.61299991607666,0.4779999852180481,40.323036048262
1558049801740,,,,237.45789587426543
1558049801741,0.382999986410141,9.307999610900879,-0.6700000166893005,
1558049801779,,,,136.7787865071691
1558049801818,-0.4020000100135803,12.718000411987305,0.3540000021457672,331.48131522444066
1558049801857,,,,331.0276182012753
1558049801858,-0.49799999594688416,13.819000244140625,-1.406999945640564,90.08727866169261
1558049801937,-2.4700000286102295,8.503999710083008,5.918000221252441,89.86121306054349
1558049801976,,,,261.8927678563918
1558049801989,1.6759999990463257,9.395000457763672,-1.5219999551773071,155.43740165916154
1558049802053,,,,154.68069866139416
1558049802055,-0.640999972820282,9.633999824523926,2.240999937057495,284.41661438045116
1558049802132,0.11400000005960464,6.396999835968018,0.1720000058412552,283.2491438059992
1558049802173,,,,244.92672139205268
1558049802212,-0.1720000058412552,7.909999847412109,0.05700000002980232,351.56710694124376
1558049802251,,,,351.7817319755331
1558049802254,-1.2350000143051147,8.791000366210938,-0.6320000290870667,43.954377837485595
1558049802329,-0.9570000171661377,9.807000160217285,-0.8519999980926514,43.22860876646922
1558049802371,,,,57.68020988032731
1558049802405,-0.5550000071525574,12.899999618530273,-2.0969998836517334,94.23702156363635
1558049802444,,,,94.73973031673847
1558049802482,-0.746999979019165,,5.880000114440918,259.98392122867
1558049802483,,12.383000373840332,,
1558049802522,1.1579999923706055,8.560999870300293,0.8519999980926514,260.05312470534057
1558049802591,1.6180000305175781,11.166000366210938,-0.4399999976158142,220.7934773938632
1558049802668,,,,176.86477059500206
1558049802669,-1.6469999551773071,7.909999847412109,0.45899999141693115,354.80467295689044
1558049802709,,,,356.3408636097227
1558049802748,0.4300000071525574,6.02400016784668,-0.4779999852180481,148.0353480707003
1558049802788,1.1390000581741333,7.46999979019165,-0.4300000071525574,148.21167623431336
1558049802832,,,,173.77557165605367
1558049802866,0.9480000138282776,,-0.8610000014305115,
1558049802867,,9.652999877929688,,154.52820785798446
1558049802905,,,,155.16953530029198
1558049802913,0.45899999141693115,11.51099967956543,-0.5450000166893005,146.33412553336854
1558049802988,-0.02800000086426735,14.059000015258789,-2.881999969482422,146.44234305057822
1558049803035,,,,115.38700285690433
1558049803071,-4.165999889373779,,,
1558049803072,,9.604999542236328,6.493000030517578,259.85100574742154
1558049803113,1.9819999933242798,8.600000381469727,-0.8330000042915344,259.75591585379664
1558049803162,,,,172.670542670994
1558049803199,-0.19099999964237213,9.979000091552734,2.1540000438690186,274.76921123442906
1558049803240,,,,273.73531183938593
1558049803243,0.20100000500679016,6.493000030517578,0.5450000166893005,256.96568795519806
1558049803324,-0.5170000195503235,8.043999671936035,0.16200000047683716,257.30750477221136
1558049803365,,,,355.2987901857903
1558049803406,-0.8519999980926514,8.9350004196167,-0.41100001335144043,43.618165190686284
1558049803446,-0.5740000009536743,9.050000190734863,-0.9860000014305115,43.2230933887144
1558049803493,,,,80.67650741946562
1558049803528,-1.0429999828338623,12.583999633789062,-0.41100001335144043,38.000061390784026
1558049803569,,,,38.55579973260211
1558049803611,-0.02800000086426735,13.130000114440918,4.635000228881836,261.5467641334173
1558049803651,-0.23899999260902405,,4.193999767303467,263.1196952275687
1558049803652,,8.868000030517578,,
1558049803693,,,,259.34301725809104
1558049803735,1.809999942779541,11.041999816894531,-0.6990000009536743,174.92946381443562
1558049803777,-1.2730000019073486,8.217000007629395,1.8769999742507935,175.96416917180085
1558049803822,,,,306.3022958397887
1558049803857,-0.5360000133514404,5.955999851226807,0.11400000005960464,5.275965963998033
1558049803896,,,,5.225707724537756
1558049803903,0.9190000295639038,7.182000160217285,0.20999999344348907,206.2292054794566
1558049803976,0.9480000138282776,8.972999572753906,-1.1200000047683716,206.46763372300336
1558049804021,,,,151.4921887719138
1558049804054,-0.19099999964237213,12.833000183105469,0.4399999976158142,308.49620724271017
1558049804087,,,,308.1271618765706
1558049804122,-0.9860000014305115,14.595000267028809,-0.1340000033378601,26.100625347098287
1558049804162,,,,25.308108252417924
1558049804168,-2.757999897003174,8.446999549865723,5.401000022888184,263.6780427016497
1558049804250,2.7290000915527344,9.050000190734863,-1.5219999551773071,262.80864158257714
1558049804292,,,,168.09199366276763
1558049804332,-0.2680000066757202,,2.0969998836517334,
1558049804333,,8.743000030517578,,275.23138964499634
1558049804376,0.20999999344348907,7.047999858856201,0.1809999942779541,273.97598721516965
1558049804417,,,,230.29638788799366
1558049804440,-0.5740000009536743,,,
1558049804441,,8.418000221252441,-0.7179999947547913,69.62073975715441
1558049804483,,,,69.64859326858976
1558049804503,-1.340000033378601,,,
1558049804504,,8.9350004196167,-0.7749999761581421,50.6643351875386
1558049804568,0.008999999612569809,9.404000282287598,-0.7559999823570251,50.48435287271957
1558049804635,-0.7369999885559082,12.41100025177002,-1.9249999523162842,106.93034757002562
1558049804702,-2.384000062942505,11.63599967956543,6.464000225067139,91.54868642707606
1558049804747,,,,261.7259131651575
1558049804770,4.070000171661377,8.9350004196167,-1.9529999494552612,169.9204899450934
1558049804813,,,,170.22086800441224
1558049804837,-0.4300000071525574,10.888999938964844,1.2920000553131104,292.7252799585832
1558049804906,-1.4459999799728394,7.853000164031982,0.8140000104904175,293.00723016752136
1558049804945,,,,338.2759839956748
1558049804973,0.9480000138282776,6.568999767303467,-0.5740000009536743,164.46322343976658
1558049805011,,,,164.05652665582735
1558049805041,0.8330000042915344,7.776000022888184,-0.16200000047683716,181.31397312319234
1558049805077,,,,181.28909757423526
1558049805108,0.640999972820282,9.682000160217285,-1.1100000143051147,137.99231987738358
1558049805143,,,,137.31607650803898
1558049805175,0.2290000021457672,12.631999969482422,-0.5550000071525574,126.61842932428988
1558049805209,,,,126.35819911691243
1558049805242,-1.0529999732971191,14.394000053405762,3.447000026702881,282.1968985228454
1558049805276,,,,282.39315717845653
1558049805311,-1.1679999828338623,7.5269999504089355,3.246000051498413,270.6053435012817
1558049805344,,,,270.4873110022347
1558049805379,1.9049999713897705,10.027000427246094,-0.5929999947547913,174.9420177021301
1558049805412,,,,174.47719600835407
1558049805421,0.5839999914169312,,,
1558049805422,,8.312000274658203,0.9279999732971191,241.39488521375245
1558049805476,,,,241.004772129118
1558049805487,-0.4399999976158142,,,
1558049805488,,6.90500020980835,0.5929999947547913,311.60565769254765
1558049805540,,,,312.00449975894134
1558049805572,-0.3440000116825104,8.628999710083008,-0.2290000021457672,46.26107956926603
1558049805605,,,,46.098633765141074
1558049805634,-0.9380000233650208,8.619000434875488,-1.062999963760376,68.48600627939436
1558049805671,,,,68.9403846139295
1558049805699,-0.04699999839067459,9.902000427246094,-0.20999999344348907,89.42715453878918
1558049805737,,,,89.9526624633408
1558049805764,0.41100001335144043,,-2.5850000381469727,
1558049805765,,12.583999633789062,,120.68528987910994
1558049805830,-3.4570000171661377,10.314000129699707,6.8379998207092285,121.07056718981204
1558049805895,3.1700000762939453,8.159000396728516,-0.5170000195503235,260.8262884590077
1558049805934,,,,182.70752295917168
1558049805962,-0.257999986410141,10.831000328063965,1.5219999551773071,283.909165476065
1558049806001,,,,284.4224883431374
1558049806028,-0.6890000104904175,7.46999979019165,1.3880000114440918,298.1220104972962
1558049806067,,,,298.5686502275017
1558049806095,0.621999979019165,7.210999965667725,-0.0949999988079071,184.5466606762244
1558049806161,0.8230000138282776,7.631999969482422,-0.04699999839067459,184.71110431068166
1558049806199,,,,189.71279719836866
1558049806230,0.8140000104904175,9.336999893188477,-0.29600000381469727,174.5265236345399
1558049806265,,,,174.3650579625608
1558049806300,0.3440000116825104,,,
1558049806334,,,,148.13583381376952
1558049806370,-1.2829999923706055,,3.0160000324249268,
1558049806371,,13.934000015258789,,293.9840018603465
1558049806405,,,,294.6513250026351
1558049806411,-1.49399995803833,7.73799991607666,4.48199987411499,265.7290938678912
1558049806475,,,,265.77192598417633
1558049806511,2.1059999465942383,10.102999687194824,-0.8999999761581421,172.63217066823685
1558049806545,,,,172.38984921686315
1558049806546,-0.3059999942779541,8.503999710083008,1.3589999675750732,287.5268776227999
1558049806616,0.1720000058412552,6.656000137329102,-0.04699999839067459,287.1599325398301
1558049806661,,,,178.12627921394673
1558049806687,-0.4779999852180481,8.743000030517578,0.20999999344348907,348.9721550047895
1558049806759,-0.8809999823570251,8.723999977111816,-0.32499998807907104,348.7888096755779
1558049806793,,,,37.32527968192176
1558049806825,-0.4880000054836273,10.11299991607666,-0.5929999947547913,67.82603925084186
1558049806860,,,,67.66535905061733
1558049806894,-0.621999979019165,12.210000038146973,-1.312000036239624,84.52516875260608
1558049806928,,,,84.54702535795013
1558049806964,-1.4359999895095825,10.869999885559082,5.583000183105469,265.6668640143632
1558049807000,,,,265.74993277504893
1558049807005,2.2309999465942383,8.88700008392334,-1.034000039100647,170.6179478820001
1558049807070,,,,170.6360069021656
1558049807072,-0.1720000058412552,10.916999816894531,1.6950000524520874,280.013997384866
1558049807139,-1.5800000429153442,7.795000076293945,0.4779999852180481,280.2518997038467
1558049807211,0.5170000195503235,6.8379998207092285,-0.06700000166893005,354.9803923798937
1558049807254,,,,185.27216336986316
1558049807283,0.6600000262260437,7.795000076293945,-0.01899999938905239,190.53588963486845
1558049807321,,,,190.13946545544093
1558049807352,1.1009999513626099,,,
1558049807353,,9.270000457763672,-1.3589999675750732,147.089667398977
1558049807387,,,,146.53453694399505
1558049807421,0.02800000086426735,,,275.8011640255588
1558049807422,,12.383000373840332,0.3440000116825104,
1558049807455,,,,275.2920553852044
1558049807490,-0.6320000290870667,14.517999649047852,3.178999900817871,279.81826465382096
1558049807524,,,,279.43020745612665
1558049807558,-1.9630000591278076,7.928999900817871,4.270999908447266,269.58612218276494
1558049807594,,,,268.4241772313515
1558049807600,2.872999906539917,9.480999946594238,-1.8769999742507935,162.13014010231694
1558049807666,-1.350000023841858,9.232000350952148,1.9919999837875366,161.2946030611493
1558049807736,0.20100000500679016,6.809000015258789,-0.5360000133514404,298.92960523456935
1558049807808,-0.41100001335144043,8.369999885559082,-0.257999986410141,123.5401177068785
1558049807849,,,,43.32629071688416
1558049807881,-1.4359999895095825,8.532999992370605,-0.5450000166893005,36.196908525373544
1558049807917,,,,36.718772544002945
1558049807954,-0.4020000100135803,,,
1558049807955,,9.604999542236328,-0.640999972820282,71.59920650308618
1558049807991,,,,71.41576811254714
1558049807995,-0.20100000500679016,12.699000358581543,-1.8669999837875366,101.34670207448607
1558049808065,-2.384000062942505,11.550000190734863,6.750999927520752,101.51312646380256
1558049808137,1.9249999523162842,7.671000003814697,1.1679999828338623,262.583095075805
1558049808179,,,,213.5421387596275
1558049808211,1.0240000486373901,10.362000465393066,-0.0860000029206276,185.05862433565187
1558049808248,,,,185.35460375314517
1558049808285,-0.9190000295639038,7.756999969482422,1.4259999990463257,302.1333396157097
1558049808320,,,,301.88796506977695
1558049808325,0.8519999980926514,6.7230000495910645,-0.45899999141693115,164.21157194998665
1558049808393,0.9190000295639038,7.986999988555908,0.1340000033378601,164.07989956316715
1558049808465,1.2829999923706055,9.088000297546387,-1.062999963760376,196.2422394788473
1558049808509,,,,154.59742499503338
1558049808538,0.24899999797344208,,,
1558049808539,,12.335000038146973,0.11400000005960464,213.8261380253166
1558049808576,,,,213.92542165509195
1558049808614,-0.257999986410141,14.364999771118164,1.225000023841858,286.920206560341
1558049808650,,,,286.67337718411505
1558049808655,-2.316999912261963,8.35099983215332,5.046999931335449,262.6244996825536
1558049808720,,,,262.4930731825442
1558049808754,2.6429998874664307,9.279999732971191,-1.2920000553131104,166.94562837285105
1558049808788,-0.9190000295639038,8.83899974822998,1.8960000276565552,166.09679978355854
1558049808857,0.1340000033378601,6.684000015258789,-0.3160000145435333,290.04997682295925
1558049808929,-0.5740000009536743,8.637999534606934,-0.2770000100135803,123.5163896297019
1558049808971,,,,36.58648885525275
1558049808999,-1.1200000047683716,8.532999992370605,-0.45899999141693115,35.55036281854018
1558049809037,,,,35.1469035442675
1558049809070,0.10499999672174454,9.652999877929688,-0.0949999988079071,146.19297284398107
1558049809106,,,,146.32631179695804
1558049809142,-0.20100000500679016,12.41100025177002,-1.378999948501587,96.17141309885403
1558049809181,,,,96.11541920803825
1558049809183,-1.2730000019073486,,5.007999897003174,266.32864104304576
1558049809184,,11.92300033569336,,
1558049809253,1.7899999618530273,8.015999794006348,0.9670000076293945,266.7078941268999
1558049809325,0.7369999885559082,11.175999641418457,-0.2290000021457672,210.43330985700447
1558049809399,,,,172.43588469186903
1558049809400,-1.1390000581741333,7.958000183105469,0.9760000109672546,321.2810714443559
1558049809438,,,,321.50484210194384
1558049809479,0.45899999141693115,6.493000030517578,-0.20100000500679016,166.72911137616163
1558049809518,0.9480000138282776,8.062999725341797,-0.06700000166893005,166.5075263791081
1558049809566,,,,184.6388135885062
1558049809595,1.090999960899353,9.088000297546387,-0.7850000262260437,156.650170048189
1558049809632,,,,156.37248187729296
1558049809645,-0.2770000100135803,11.760000228881836,0.621999979019165,299.8655119055903
1558049809707,,,,300.4167423225562
1558049809744,-0.3440000116825104,,,
1558049809745,,14.958999633789062,1.2920000553131104,289.266362879862
1558049809782,-2.6519999504089355,8.024999618530273,4.864999771118164,289.52252912468333
1558049809829,,,,263.8858853580932
1558049809857,2.9489998817443848,9.001999855041504,-1.3589999675750732,168.1112001547137
1558049809896,,,,167.23908062035147
1558049809934,-0.8899999856948853,9.614999771118164,1.656000018119812,295.6597136411283
1558049809972,,,,294.9475366465602
1558049809975,-0.42100000381469727,6.980999946594238,-0.3440000116825104,50.64649814852112
1558049810049,-0.5070000290870667,8.178000450134277,-0.5070000290870667,50.3687314304496
1558049810093,,,,56.41492416677164
1558049810127,-1.3209999799728394,7.986999988555908,0.29600000381469727,353.0437067548886
1558049810166,,,,352.75638289462097
1558049810173,-0.14300000667572021,9.633999824523926,-0.6600000262260437,88.71202007231051
1558049810243,-0.1340000033378601,13.58899974822998,-2.5280001163482666,88.35640627317377
1558049810318,-4.48199987411499,10.581999778747559,6.942999839782715,104.08400966739538
1558049810357,,,,260.05140349766975
1558049810393,5.639999866485596,,-2.9110000133514404,165.6975752265713
1558049810394,,8.083000183105469,,
1558049810430,,,,166.02736408045618
1558049810438,-2.0299999713897705,10.937000274658203,3.2750000953674316,287.7938355665098
1558049810505,-0.5170000195503235,7.642000198364258,-0.01899999938905239,288.13347355317785
1558049810579,0.9570000171661377,7.066999912261963,-0.5740000009536743,10.175875372673431
1558049810656,0.8040000200271606,,0.11400000005960464,158.96102795007943
1558049810657,,7.728000164031982,,
1558049810695,,,,193.50750003706594
1558049810733,1.0049999952316284,,,
1558049810734,,9.940999984741211,-1.7710000276565552,134.47676687006467
1558049810772,0.1720000058412552,12.631999969482422,-1.0049999952316284,133.7278502879511
1558049810819,,,,109.57367175995557
1558049810849,-1.6369999647140503,14.230999946594238,2.9110000133514404,290.9419585474279
1558049810886,,,,290.389280130358
1558049810900,-0.9760000109672546,7.382999897003174,3.2750000953674316,263.2842959563768
1558049810966,2.193000078201294,9.998000144958496,-0.765999972820282,262.28789429987705
1558049811045,0.14300000667572021,,,167.34978432641904
1558049811046,,8.552000045776367,0.5929999947547913,
1558049811086,,,,255.9332160696914
1558049811126,-0.8709999918937683,7.039000034332275,0.4399999976158142,332.8315018969269
1558049811167,-1.0149999856948853,8.734000205993652,-0.3440000116825104,333.4102152875656
1558049811214,,,,26.473119958768677
1558049811248,-0.6320000290870667,7.9770002365112305,-1.034000039100647,72.00441430578633
1558049811288,,,,72.19503122514311
1558049811329,-0.1720000058412552,9.652999877929688,-0.29600000381469727,66.29021657445116
1558049811369,-0.44999998807907104,13.111000061035156,-1.3589999675750732,67.22088449037875
1558049811413,,,,85.1823490639772
1558049811450,-2.614000082015991,12.5649995803833,6.263000011444092,263.8750321875021
1558049811491,,,,265.7483071900265
1558049811493,1.187000036239624,7.182000160217285,0.9380000233650208,218.76037596476056
1558049811571,0.05700000002980232,11.866000175476074,2.0390000343322754,219.5133906603761
1558049811611,,,,267.26999137483523
1558049811652,-0.8519999980926514,7.823999881744385,0.5740000009536743,331.34313878998404
1558049811692,,,,331.75807619715687
1558049811693,-0.1720000058412552,5.813000202178955,-0.3630000054836273,78.47979563898446
1558049811743,,,,79.01989284760322
1558049811773,0.8899999856948853,,-0.257999986410141,
1558049811774,,8.22599983215332,,174.66060024794726
1558049811812,,,,174.9669888737357
1558049811823,1.1679999828338623,9.298999786376953,-0.7369999885559082,161.03386741977323
1558049811890,-0.10499999672174454,,,160.73437728504652
1558049811891,,12.23900032043457,0.7369999885559082,
1558049811967,-0.02800000086426735,14.42300033569336,-1.6950000524520874,283.75419531398666
1558049812008,,,,104.50798682993474
1558049812045,-2.624000072479248,8.369999885559082,6.138000011444092,253.59563163757872
1558049812084,,,,252.96566963005012
1558049812088,1.7330000400543213,9.720000267028809,-0.45899999141693115,173.78069429793118
1558049812159,0.6890000104904175,10.793000221252441,1.9630000591278076,172.74876199736897
1558049812235,0.15299999713897705,6.061999797821045,0.3440000116825104,245.75835839520425
1558049812274,,,,247.75420114238455
1558049812313,-0.3059999942779541,8.043999671936035,-0.3630000054836273,58.2490075438385
1558049812354,-0.9480000138282776,8.868000030517578,-0.6600000262260437,57.969051750137965
1558049812403,,,,46.02164045772207
1558049812432,-0.28700000047683716,9.279999732971191,-0.8330000042915344,82.00014343910073
1558049812472,,,,81.96418932330977
1558049812483,-0.37299999594688416,,,
1558049812484,,13.10099983215332,-1.656000018119812,90.4277499314394
1558049812553,-2.556999921798706,12.718000411987305,6.961999893188477,90.87500437867016
1558049812635,,,,260.2902893638909
1558049812636,1.5700000524520874,6.991000175476074,0.4779999852180481,
1558049812676,,,,199.7875038090558
1558049812681,0.8899999856948853,10.447999954223633,1.3880000114440918,236.68985476247582
1558049812758,-1.2920000553131104,8.255000114440918,0.621999979019165,237.08137486607927
1558049812799,,,,337.48485684449054
1558049812839,1.0429999828338623,6.750999927520752,-0.746999979019165,156.131676727915
1558049812880,0.9959999918937683,7.861999988555908,-0.4880000054836273,155.85412516080237
1558049812961,0.746999979019165,8.8100004196167,-1.062999963760376,162.52987009330278
1558049813002,,,,136.93928229228604
1558049813044,0.32499998807907104,12.267999649047852,-0.45899999141693115,133.29967938926134
1558049813085,-0.7749999761581421,14.977999687194824,-1.090999960899353,133.02323431279424
1558049813129,,,,64.8060574489424
1558049813168,-2.930000066757202,7.823999881744385,5.583000183105469,254.31524670815293
1558049813209,,,,253.8569136940884
1558049813210,3.371000051498413,9.241000175476074,-1.4259999990463257,166.00121811631337
1558049813292,-0.4690000116825104,8.944999694824219,1.4739999771118164,165.43151203764262
1558049813333,,,,280.52262108178934
1558049813341,-0.14300000667572021,6.51200008392334,0.1809999942779541,310.02402152229905
1558049813419,-0.7369999885559082,8.571000099182129,-0.4300000071525574,310.15682772052077
1558049813461,,,,37.98735382383319
1558049813473,-0.8519999980926514,,-0.9860000014305115,
1558049813546,,,,61.17004722542117
1558049813547,-0.20100000500679016,9.442999839782715,-0.4020000100135803,69.84084260315808
1558049813591,,,,69.88366788925407
1558049813632,0.4300000071525574,13.293000221252441,-1.9249999523162842,114.42193127812737
1558049813674,-2.068000078201294,11.425000190734863,5.745999813079834,114.79668326731849
1558049813723,,,,260.7121833187334
1558049813759,3.303999900817871,,,
1558049813760,,8.255000114440918,-0.4399999976158142,177.41607614404882
1558049813801,,,,177.77250273569675
1558049813803,-1.062999963760376,,,
1558049813804,,11.243000030517578,1.5889999866485596,298.9437573865296
1558049813890,-0.9380000233650208,7.258999824523926,0.9480000138282776,300.0666609766472
1558049813933,,,,312.2674039853789
1558049813939,0.33500000834465027,6.894999980926514,-0.1720000058412552,159.99791896797905
1558049814018,0.44999998807907104,7.939000129699707,-0.0949999988079071,159.64933343349827
1558049814062,,,,174.60497518734667
1558049814067,0.8809999823570251,9.510000228881836,-0.8519999980926514,146.13477963225256
1558049814149,0.008999999612569809,12.65999984741211,0.14300000667572021,146.44245233360493
1558049814193,,,,271.9855198268662
1558049814237,-1.2640000581741333,14.892000198364258,3.993000030517578,277.1138922330894
1558049814280,-1.5800000429153442,6.8470001220703125,2.9489998817443848,277.18651080434495
1558049814324,,,,273.6951093459312
1558049814331,2.0390000343322754,10.458000183105469,-1.034000039100647,161.93351261649062
1558049814382,,,,161.06374266720286
1558049814411,-0.3919999897480011,8.043999671936035,1.684999942779541,274.60116126009007
1558049814452,,,,273.3771093985538
1558049814494,-0.0860000029206276,,,
1558049814495,,7.105999946594238,0.0,3.0506677074062054
1558049814536,-0.5740000009536743,8.465999603271484,-0.746999979019165,3.275669933478923
1558049814581,,,,61.92435282678986
1558049814619,-1.4459999799728394,8.503999710083008,-0.6320000290870667,33.56594014765216
1558049814661,,,,33.05169178994731
1558049814662,-0.2290000021457672,9.835000038146973,-0.5550000071525574,74.21842012524598
1558049814713,,,,74.54784014891572
1558049814745,0.0860000029206276,12.315999984741211,-2.4609999656677246,106.3128643181106
1558049814786,,,,107.05719784329108
1558049814828,-3.246000051498413,,6.73199987411499,262.40643906311175
1558049814829,,11.760000228881836,,
1558049814871,3.936000108718872,7.5269999504089355,-0.3160000145435333,263.0196397864172
1558049814916,,,,180.18940979710646
1558049814957,0.7940000295639038,10.592000007629395,1.0429999828338623,232.1669581356067
1558049814998,,,,232.89453720675317
1558049814999,-1.2450000047683716,8.380000114440918,0.4399999976158142,343.39916375058147
1558049815043,,,,343.13861935450217
1558049815081,0.6790000200271606,6.894999980926514,-0.6700000166893005,145.03294717572444
1558049815124,0.9760000109672546,7.995999813079834,-0.746999979019165,144.14879284804462
1558049815211,0.8899999856948853,8.456000328063965,-1.0820000171661377,150.90943703192832
1558049815255,,,,139.2489244205042
1558049815257,0.19099999964237213,11.932999610900879,-0.12399999797344208,151.38296038670694
1558049815307,,,,151.04210662636663
1558049815344,0.07599999755620956,14.383999824523926,-1.1770000457763672,101.9331079656775
1558049815389,-2.872999906539917,8.972999572753906,5.572999954223633,102.06043635218487
1558049815477,2.7669999599456787,8.704999923706055,-0.8999999761581421,258.21475879966414
1558049815521,-0.5170000195503235,10.027000427246094,2.0969998836517334,168.45932123633094
1558049815571,,,,273.7330373863923
1558049815609,0.7179999947547913,,,
1558049815610,,6.589000225067139,0.32499998807907104,204.60792347617064
1558049815654,-0.5649999976158142,8.427000045776367,-0.4020000100135803,205.29385205375843
1558049815742,-1.1679999828338623,8.494000434875488,-0.7179999947547913,43.25000774913883
1558049815785,-0.746999979019165,9.194000244140625,-0.2770000100135803,43.51097903204129
1558049815871,-0.2770000100135803,12.699000358581543,-0.746999979019165,27.979314982087146
1558049815915,,,,79.20615210626949
1558049815916,1.8380000591278076,,3.8499999046325684,235.79285967915638
1558049815917,,13.560999870300293,,
1558049815967,,,,237.16795434399836
1558049816004,-0.9480000138282776,7.163000106811523,2.5759999752044678,273.61506635904783
1558049816047,,,,273.9651340445785
1558049816049,2.4800000190734863,10.256999969482422,-0.8999999761581421,170.32684521957415
1558049816130,-2.0199999809265137,,2.2119998931884766,171.14598980673378
1558049816131,,8.619000434875488,,
1558049816172,,,,302.2036017717016
1558049816179,0.32499998807907104,5.8420000076293945,0.5740000009536743,243.60427382533317
1558049816258,1.062999963760376,7.556000232696533,-0.3160000145435333,243.46027977725095
1558049816301,,,,173.53132409133403
1558049816311,0.9480000138282776,8.685999870300293,-0.8809999823570251,150.43345480904847
1558049816387,0.02800000086426735,,0.06700000166893005,150.48137541626528
1558049816388,,11.57800006866455,,
1558049816430,,,,256.39215697059205
1558049816474,0.5070000290870667,13.675999641418457,-1.7999999523162842,121.94450355449351
1558049816517,-1.8960000276565552,11.463000297546387,6.501999855041504,122.00598891740196
1558049816561,,,,260.155625354215
1558049816603,2.6619999408721924,6.923999786376953,-0.4399999976158142,180.1735910789887
1558049816646,0.05700000002980232,10.324000358581543,1.781000018119812,179.96010304382511
1558049816694,,,,267.03740294302884
1558049816739,0.04699999839067459,7.440999984741211,0.7749999761581421,269.5015507804618
1558049816783,,,,269.49461130826506
1558049816784,-0.4300000071525574,7.6519999504089355,-0.1720000058412552,33.13766679612485
1558049816830,,,,33.65786766369138
1558049816875,-0.746999979019165,,,
1558049816876,,7.958000183105469,-0.7559999823570251,62.53706860666421
1558049816921,,,,63.041942529733205
1558049816922,-0.5170000195503235,8.723999977111816,-0.7850000262260437,73.24120447012479
1558049816966,,,,72.753535793575
1558049816971,0.2680000066757202,,,
1558049816972,,12.24899959564209,-0.02800000086426735,183.52588890476602
1558049817055,2.700000047683716,13.723999977111816,0.6029999852180481,183.52571131984757
1558049817100,,,,198.9100294063843
1558049817103,-2.7100000381469727,8.532999992370605,5.113999843597412,262.3742347211752
1558049817155,,,,261.3938225375224
1558049817189,5.046999931335449,,,
1558049817190,,10.151000022888184,-2.068000078201294,171.04730723360544
1558049817234,,,,171.64376033306598
1558049817236,-2.7290000915527344,10.630000114440918,2.3459999561309814,312.70281488458886
1558049817286,,,,313.6249792149998
1558049817324,0.765999972820282,5.85099983215332,-0.41100001335144043,165.08117797473432
1558049817370,0.8040000200271606,7.144000053405762,-0.4020000100135803,164.48931476239605
1558049817419,,,,165.28598802718633
1558049817462,0.621999979019165,8.723999977111816,-0.746999979019165,143.70350549529482
1558049817508,0.4020000100135803,11.003999710083008,-0.8809999823570251,143.50670042455008
1558049817555,,,,128.4627306643551
1558049817565,0.19099999964237213,13.081999778747559,-2.0299999713897705,113.7565410793739
1558049817644,-1.4359999895095825,12.067000389099121,5.486999988555908,113.6038453702891
1558049817688,,,,265.9069724844459
1558049817732,1.6660000085830688,6.798999786376953,0.8519999980926514,210.12862877850858
1558049817777,,,,209.86102196682748
1558049817778,0.8709999918937683,10.706999778747559,1.2350000143051147,237.80445967275188
1558049817822,,,,237.69206207977015
1558049817829,0.20100000500679016,7.239999771118164,1.1490000486373901,260.448339941285
1558049817912,-0.2290000021457672,7.88100004196167,0.3440000116825104,260.5066902473644
1558049817955,,,,311.5647721801759
1558049817961,-0.5740000009536743,,-0.640999972820282,63.71766680470091
1558049817962,,8.560999870300293,,
1558049818044,-0.7179999947547913,8.312000274658203,-0.29600000381469727,64.57088720562967
1558049818089,,,,36.43262518381988
1558049818093,-0.5450000166893005,,,
1558049818094,,12.41100025177002,-0.1809999942779541,30.45703269785372
1558049818146,,,,31.0243584555987
1558049818179,2.2119998931884766,14.163999557495117,-1.1200000047683716,166.53252487147034
1558049818223,,,,166.76828934124083
1558049818225,-2.805999994277954,8.418000221252441,6.693999767303467,253.98329951449034
1558049818313,4.289999961853027,9.355999946594238,-1.7330000400543213,254.33945972876063
1558049818361,-2.624000072479248,10.170000076293945,3.1500000953674316,172.32744860860592
1558049818410,,,,299.4112565144603
1558049818456,0.6029999852180481,,,
1558049818457,,6.1479997634887695,0.1809999942779541,206.50070549896463
1558049818505,0.7369999885559082,7.230000019073486,-0.01899999938905239,206.75450166814392
1558049818552,,,,189.86273351102875
1558049818555,0.5260000228881836,8.024999618530273,-0.9190000295639038,137.13265860806746
1558049818647,0.5170000195503235,10.696999549865723,-0.4690000116825104,137.38835356983606
1558049818694,,,,151.56473904127768
1558049818695,0.37299999594688416,13.387999534606934,-2.1059999465942383,
1558049818742,,,,119.44323363892147
1558049818790,-1.8569999933242798,12.842000007629395,6.761000156402588,263.1685788914585
1558049818837,2.2119998931884766,6.1579999923706055,0.11400000005960464,263.08660296104
1558049818885,,,,189.99915970951054
1558049818934,1.253999948501587,11.347999572753906,1.1579999923706055,226.5550151663358
1558049818937,,,,225.39015372414678
1558049818983,0.20999999344348907,7.047999858856201,0.4779999852180481,250.85885679942464
1558049819030,-0.20100000500679016,7.440999984741211,-0.0860000029206276,249.82490959305733
1558049819078,,,,31.619090347388408
1558049819083,-0.8330000042915344,8.656999588012695,-0.9860000014305115,65.53733848261902
1558049819136,,,,65.30482518289341
1558049819175,-0.8610000014305115,,,
1558049819176,,,-0.9190000295639038,
1558049819177,,8.388999938964844,,62.22749711272252
1558049819225,-1.0049999952316284,12.114999771118164,-0.04699999839067459,62.22749711272252
1558049819271,,,,11.166190476849124
1558049819316,2.490000009536743,,-0.4300000071525574,
1558049819317,,13.914999961853027,,178.04821015173349
1558049819364,-2.7100000381469727,8.878000259399414,5.285999774932861,178.67515321564895
1558049819411,,,,265.5604360067161
1558049819413,3.734999895095825,9.86400032043457,-1.8769999742507935,166.58932472460816
1558049819465,,,,167.194547786963
1558049819502,-2.7860000133514404,,3.0450000762939453,
1558049819503,,9.107000350952148,,297.49239682941527
1558049819549,0.03799999877810478,6.0329999923706055,0.2290000021457672,298.7971063948603
1558049819597,,,,269.1467839247822
1558049819643,0.8899999856948853,7.604000091552734,-0.5450000166893005,161.49416752831874
1558049819689,0.3919999897480011,8.581000328063965,-1.062999963760376,161.71720052547633
1558049819736,,,,126.97607168961011
1558049819743,0.15299999713897705,10.859999656677246,-0.8040000200271606,115.58761917320595
1558049819797,,,,116.17015234713801
1558049819830,0.7749999761581421,13.22599983215332,-2.671999931335449,126.68920374446958
1558049819877,-2.193000078201294,,,126.95809463171463
1558049819878,,12.182000160217285,6.923999786376953,
1558049819927,,,,263.8671979605241
1558049819972,2.4700000286102295,6.550000190734863,1.3209999799728394,210.1696782154204
1558049820021,1.2829999923706055,10.447999954223633,0.6890000104904175,209.38809966869576
1558049820072,,,,213.45173437577319
1558049820074,0.29600000381469727,6.875999927520752,1.5130000114440918,255.98283739401154
1558049820172,-0.7940000295639038,7.699999809265137,0.3630000054836273,255.73401360254798
1558049820221,-0.8420000076293945,8.560999870300293,-0.9860000014305115,342.7569091100941
1558049820269,,,,67.64233448292521
1558049820275,-0.6029999852180481,8.944999694824219,0.20100000500679016,350.60230003229714
1558049820323,,,,350.03256407154873
1558049820367,-0.1809999942779541,12.631999969482422,-0.45899999141693115,79.9515648013388
1558049820417,,,,79.55417073504913
1558049820418,1.972000002861023,13.934000015258789,3.1410000324249268,
1558049820467,,,,235.52376388623622
1558049820469,-2.4609999656677246,,4.672999858856201,266.04658838127006
1558049820470,,7.939000129699707,,
1558049820565,3.9260001182556152,9.86400032043457,-2.2309999465942383,265.6078989912585
1558049820617,-2.739000082015991,9.039999961853027,2.2690000534057617,165.94762845208547
1558049820668,0.2290000021457672,5.97599983215332,-0.7369999885559082,313.67872597357865
1558049820719,,,,124.5998898584977
1558049820768,0.8709999918937683,7.479000091552734,-0.20999999344348907,178.04926200086567
1558049820817,1.0429999828338623,8.600000381469727,-0.4880000054836273,177.52701207654815
1558049820864,,,,167.5380243399446
1558049820866,0.02800000086426735,11.732000350952148,-0.06700000166893005,124.02380438314214
1558049820917,,,,124.66912065592493
1558049820960,-0.04699999839067459,14.61400032043457,-1.3980000019073486,105.07468079518154
1558049821008,-1.9630000591278076,9.815999984741211,6.7230000495910645,105.36902096727405
1558049821056,,,,257.73463748214726
1558049821063,3.0450000762939453,7.0960001945495605,-1.2920000553131104,172.15957621918534
1558049821151,,,,172.07131651473043
1558049821152,-0.20100000500679016,10.630000114440918,2.757999897003174,
1558049821199,-0.04699999839067459,7.105999946594238,0.32499998807907104,270.7628886446772
1558049821247,,,,287.9201599152092
1558049821294,-0.42100000381469727,8.015999794006348,0.02800000086426735,8.992919051825822
1558049821344,-1.1299999952316284,8.685999870300293,-0.5070000290870667,9.432449408878938
1558049821391,,,,43.25532163631311
1558049821393,-0.20100000500679016,8.848999977111816,-0.8899999856948853,96.35422994217856
1558049821483,-0.8420000076293945,13.111000061035156,-0.5070000290870667,95.86526352968656
1558049821530,1.1770000457763672,13.331000328063965,2.9779999256134033,47.10430740343912
1558049821579,,,,248.21605853406078
1558049821629,-1.1299999952316284,7.9679999351501465,2.9010000228881836,279.7294243832866
1558049821679,2.805999994277954,9.510000228881836,-0.4300000071525574,279.3464625067131
1558049821730,-2.815000057220459,9.079000473022461,1.465000033378601,182.3367802910234
1558049821782,,,,334.1771960124866
1558049821833,0.5550000071525574,6.2820000648498535,-0.2290000021457672,169.884276282114
1558049821884,,,,169.6749992859448
1558049821885,1.2350000143051147,7.066999912261963,-0.5929999947547913,167.63562774318407
1558049821935,0.4300000071525574,8.868000030517578,-0.7080000042915344,166.80327357016964
1558049821987,,,,135.17203914643696
1558049821989,0.765999972820282,11.482999801635742,-1.0049999952316284,141.33358011746213
1558049822041,,,,141.13225346148684
1558049822053,0.0860000029206276,,,
1558049822054,,13.914999961853027,-1.5889999866485596,109.23619211306524
1558049822143,-1.8480000495910645,11.63599967956543,5.955999851226807,109.07419368633089
1558049822193,2.5369999408721924,,,265.72042635783447
1558049822194,,6.817999839782715,-0.765999972820282,
1558049822243,,,,174.55660378764463
1558049822251,0.2680000066757202,9.786999702453613,1.0429999828338623,259.1652410943739
1558049822302,,,,259.0439437649037
1558049822349,-0.2199999988079071,7.440999984741211,1.7039999961853027,273.53941518380077
1558049822400,,,,273.59825043331125
1558049822401,-0.4880000054836273,8.072999954223633,0.0860000029206276,359.7112241108839
1558049822451,-0.7559999823570251,8.284000396728516,-0.6320000290870667,0.5633390617038572
1558049822501,,,,56.468356736648616
1558049822550,-0.7850000262260437,9.088000297546387,-0.4020000100135803,41.66772954110826
1558049822600,-0.37299999594688416,12.41100025177002,-0.37299999594688416,41.68843867467177
1558049822649,2.7100000381469727,13.302000045776367,-0.01899999938905239,58.05055639750378
1558049822747,,,,189.36774970187787
1558049822748,-2.614000082015991,8.10200023651123,6.177000045776367,256.056494154021
1558049822796,4.251999855041504,10.763999938964844,-1.2640000581741333,256.37812776203685
1558049822849,-1.4550000429153442,8.819999694824219,2.2980000972747803,177.10635438594542
1558049822898,,,,298.62356494842857
1558049822947,-0.05700000002980232,,,
1558049822948,,6.110000133514404,0.02800000086426735,347.0188916568951
1558049822997,0.8420000076293945,7.986999988555908,-0.12399999797344208,347.10441928568196
1558049823047,0.10499999672174454,8.83899974822998,-0.5170000195503235,184.12533362708302
1558049823098,,,,116.98810848138203
1558049823148,0.5170000195503235,11.3100004196167,-0.3440000116825104,159.8648668829472
1558049823199,0.382999986410141,13.847999572753906,-2.4609999656677246,159.78257676382688
1558049823251,-2.6040000915527344,9.73900032043457,7.0960001945495605,119.46436624421347
1558049823304,,,,254.97614264243254
1558049823310,2.4030001163482666,9.154999732971191,-0.45899999141693115,179.91033828553242
1558049823361,,,,179.21169189571015
1558049823373,0.02800000086426735,,,
1558049823374,,10.28499984741211,2.1540000438690186,266.85861591131453
1558049823465,0.3440000116825104,6.310999870300293,0.04699999839067459,265.4904607186693
1558049823517,-0.33500000834465027,8.024999618530273,-0.257999986410141,194.69726434896882
1558049823569,,,,46.84782355482139
1558049823571,-1.378999948501587,9.069000244140625,-0.24899999797344208,20.544420136549206
1558049823623,,,,20.293306524166383
1558049823675,-0.3630000054836273,9.097999572753906,-1.090999960899353,85.70313049762314
1558049823730,-1.1579999923706055,12.737000465393066,-1.5219999551773071,85.4464178376682
1558049823783,-0.20100000500679016,13.46500015258789,2.183000087738037,67.54282545690728
1558049823837,-2.1449999809265137,8.053999900817871,3.74399995803833,273.0668275649384
1558049823888,,,,274.6144254874583
1558049823942,3.562000036239624,9.701000213623047,-1.5700000524520874,167.35233881716863
1558049823952,,,,168.05445494308924
1558049823996,-2.9010000228881836,8.878000259399414,2.556999921798706,304.01918899649604
1558049824050,0.6029999852180481,6.043000221252441,-0.41100001335144043,304.60646232171206
1558049824102,0.44999998807907104,7.296999931335449,0.05700000002980232,157.36971681687152
1558049824152,,,,195.97213281793006
1558049824203,0.07599999755620956,,-0.4880000054836273,
1558049824204,,9.097999572753906,,111.33563516957625
1558049824254,0.4779999852180481,11.673999786376953,-0.621999979019165,111.8814014352061
1558049824306,-0.2770000100135803,13.866999626159668,-2.078000068664551,140.59656172488275
1558049824357,,,,101.8282440713503
1558049824406,-2.7860000133514404,10.227999687194824,7.210999965667725,258.8678205069657
1558049824458,2.739000082015991,7.058000087738037,-0.5929999947547913,258.57199135363413
1558049824509,-0.4020000100135803,9.510000228881836,2.700000047683716,178.26303326150872
1558049824560,,,,271.8680747240878
1558049824562,0.33500000834465027,7.355000019073486,0.9760000109672546,253.38233849017757
1558049824613,,,,253.03862288057502
1558049824628,-0.746999979019165,7.958000183105469,-0.01899999938905239,11.855103847104147
1558049824715,-0.7269999980926514,8.293000221252441,-0.6029999852180481,12.376272893985515
1558049824765,,,,54.49890925551591
1558049824766,-1.2640000581741333,8.88700008392334,-0.01899999938905239,12.109664997470475
1558049824818,,,,12.32270884296696
1558049824825,-0.6029999852180481,12.343999862670898,-0.7179999947547913,63.47867848564215
1558049824877,,,,63.504353166732244
1558049824928,1.3880000114440918,15.083999633789062,3.8499999046325684,246.92352036571674
1558049824983,,,,247.8285682420676
1558049824984,-0.8809999823570251,7.565000057220459,3.7149999141693115,265.8588947828781
1558049825038,2.259999990463257,9.42300033569336,-1.1770000457763672,266.24256016893605
1558049825095,-3.4760000705718994,9.54800033569336,2.7669999599456787,166.8173164391032
1558049825152,,,,311.8879323354713
1558049825155,0.9190000295639038,,-0.02800000086426735,188.64846248038384
1558049825156,,6.377999782562256,,
1558049825208,,,,188.22070139304424
1558049825245,0.1720000058412552,,0.0949999988079071,218.99025281146652
1558049825246,,7.269000053405762,,
1558049825301,0.4300000071525574,8.666999816894531,-0.746999979019165,219.01827024744193
1558049825355,-0.257999986410141,11.463000297546387,-0.7179999947547913,133.91872675449628
1558049825408,,,,84.17421997267246
1558049825462,0.008999999612569809,13.560999870300293,-3.0260000228881836,111.34984879323906
1558049825470,,,,110.90784676148002
1558049825518,-2.930000066757202,11.722000122070312,6.196000099182129,271.4169407294085
1558049825572,2.134999990463257,,,271.0259055692361
1558049825573,,6.234000205993652,0.3160000145435333,
1558049825629,0.49799999594688416,10.821999549865723,0.5929999947547913,193.65671234967408
1558049825683,-0.29600000381469727,,,235.50737143222818
1558049825684,,7.556000232696533,0.3919999897480011,313.0876516480895
1558049825737,,,,312.82943293142256
1558049825791,-0.4880000054836273,7.556000232696533,0.8140000104904175,303.43523514321663
1558049825801,,,,302.8585315357412
1558049825844,-0.621999979019165,,-0.4399999976158142,
1558049825845,,8.407999992370605,,46.96705133697316
1558049825896,-1.0820000171661377,8.541999816894531,-1.0820000171661377,47.22144173261029
1558049825949,-0.6119999885559082,11.482999801635742,-0.3440000116825104,61.883296559688915
1558049826003,,,,39.4771273648397
1558049826057,1.2640000581741333,15.312999725341797,0.7369999885559082,215.2886454511564
1558049826065,,,,215.8229028480348
1558049826109,-2.078000068664551,8.053999900817871,6.684000015258789,252.04771269616788
1558049826162,3.121999979019165,8.619000434875488,-1.5219999551773071,252.2696596932475
1558049826214,-2.4700000286102295,9.777999877929688,2.000999927520752,166.57972147863512
1558049826267,,,,317.7892704198757
1558049826320,-0.32499998807907104,,,
1558049826321,,6.626999855041504,0.8140000104904175,294.72899108368733
1558049826376,0.03799999877810478,7.182000160217285,-0.1340000033378601,295.71725115469644
1558049826432,-0.20100000500679016,8.22599983215332,-0.02800000086426735,116.9466628934984
1558049826489,-0.4779999852180481,11.060999870300293,-0.32499998807907104,18.36438938556853
1558049826544,-0.7080000042915344,,,45.953423943386554
1558049826545,,13.656999588012695,-2.384000062942505,
1558049826601,,,,91.77670546232775
1558049826658,-3.2750000953674316,10.803000450134277,6.894999980926514,268.65790630474936
1558049826659,,,,268.63315369919724
1558049826715,-0.12399999797344208,6.789999961853027,0.5170000195503235,289.2261672165965
1558049826725,,,,288.99527267170424
1558049826771,0.5740000009536743,,1.406999945640564,
1558049826772,,10.534000396728516,,250.57681779802732
1558049826829,-0.640999972820282,6.664999961853027,0.5839999914169312,249.53910715742728
1558049826886,-0.9480000138282776,7.767000198364258,0.0,320.43191842107785
1558049826941,-1.3020000457763672,8.456000328063965,-0.7080000042915344,7.260182875437238
1558049826998,,,,40.8411229722804
1558049827003,-2.0969998836517334,8.619000434875488,-1.1200000047683716,44.870377922170576
1558049827056,,,,45.051439406878444
1558049827113,-0.8610000014305115,11.961000442504883,-0.7850000262260437,52.599017005795986
1558049827121,,,,53.148427177348026
1558049827169,0.4300000071525574,14.62399959564209,3.2269999980926514,258.2087960445187
1558049827225,-1.2350000143051147,8.819999694824219,3.437999963760376,258.529521237375
1558049827278,1.9529999494552612,9.74899959564209,-1.5800000429153442,274.78627987716493
1558049827332,,,,153.22493946245433
1558049827334,-3.4760000705718994,8.848999977111816,2.671999931335449,306.99283479506613
1558049827386,,,,308.0466920028641
1558049827440,-0.06700000166893005,,,
1558049827441,,6.961999893188477,0.8899999856948853,275.79265360985295
1558049827494,,,,275.96948037727543
1558049827495,-0.20100000500679016,6.980999946594238,0.2290000021457672,318.00572594486255
1558049827549,-0.8040000200271606,8.187999725341797,-1.3209999799728394,318.56187409803084
1558049827604,,,,76.80923382083688
1558049827605,-0.8999999761581421,11.885000228881836,0.3440000116825104,
1558049827658,,,,346.2561815077527
1558049827664,-0.8330000042915344,15.102999687194824,-2.7960000038146973,91.41284079467363
1558049827715,,,,91.27547886027548
1558049827767,-2.565999984741211,10.295000076293945,6.2729997634887695,265.51425709773764
1558049827822,0.382999986410141,8.581000328063965,0.3440000116825104,265.3352105188349
1558049827876,-0.5929999947547913,9.557000160217285,1.7999999523162842,226.8850499070308
1558049827932,0.20100000500679016,6.368000030517578,0.37299999594688416,283.6198864741475
1558049827990,,,,243.6418125450116
1558049827993,-1.2059999704360962,7.679999828338623,0.16200000047683716,356.91406674524853
1558049828049,,,,355.6140307367431
1558049828059,-1.2920000553131104,,-0.5070000290870667,
1558049828111,,,,29.53851568845954
1558049828164,-1.4359999895095825,9.039999961853027,-1.062999963760376,48.3089683579218
1558049828222,-1.5219999551773071,12.315999984741211,-0.7179999947547913,47.636426951107296
1558049828280,0.6600000262260437,13.168000221252441,2.509000062942505,31.493459262889758
1558049828337,,,,247.65670702217176
1558049828338,-1.8480000495910645,9.222000122070312,1.6369999647140503,308.0024323770424
1558049828396,0.8040000200271606,11.175999641418457,-0.5839999914169312,307.70986805413406
1558049828455,,,,149.15771207587346
1558049828456,-1.36899995803833,7.718999862670898,0.1809999942779541,354.015310555833
1558049828514,,,,354.2759002019156
1558049828572,-0.12399999797344208,6.204999923706055,-0.1340000033378601,51.43619437507425
1558049828630,0.20999999344348907,7.61299991607666,0.0,183.50162807283414
1558049828640,,,,183.6594054426614
1558049828688,0.640999972820282,8.906000137329102,-1.2350000143051147,128.04425863428673
1558049828747,-0.5170000195503235,12.373000144958496,-0.1809999942779541,128.44501315364806
1558049828804,-0.6890000104904175,14.470999717712402,0.9480000138282776,24.912655667399804
1558049828860,-4.261000156402588,,4.635000228881836,306.30849765155506
1558049828861,,8.418000221252441,,
1558049828918,2.7960000038146973,9.241000175476074,-1.0820000171661377,266.82545534289414
1558049828974,,,,166.016066947569
1558049828983,-0.7749999761581421,,1.6660000085830688,
1558049828984,,8.159000396728516,,284.5482526163248
1558049829035,,,,283.9329823457009
1558049829087,-0.5070000290870667,7.039000034332275,-0.20100000500679016,26.66221374594045
1558049829143,-1.2350000143051147,,,26.03252836107322
1558049829144,,8.369999885559082,-0.6890000104904175,
1558049829207,-1.3980000019073486,8.848999977111816,-1.0429999828338623,38.191521838503206
1558049829267,,,,48.42991734774438
1558049829268,-0.42100000381469727,9.595999717712402,-0.5550000071525574,
1558049829324,-0.6119999885559082,12.152999877929688,-1.934000015258789,58.48336499463994
1558049829378,,,,85.2300101240055
1558049829380,-3.5429999828338623,11.597000122070312,7.0960001945495605,256.4701167497786
1558049829433,,,,256.4067462546592
1558049829488,1.1970000267028809,9.145999908447266,0.0949999988079071,186.3276051815485
1558049829542,-0.4020000100135803,10.782999992370605,0.04699999839067459,186.7488639287983
1558049829599,-1.1490000486373901,7.46999979019165,0.6510000228881836,357.4048666366459
1558049829656,-0.257999986410141,6.51200008392334,0.11400000005960464,329.2468581110587
1558049829714,,,,340.28326389462023
1558049829715,0.3059999942779541,7.660999774932861,0.4880000054836273,239.03494557248632
1558049829774,,,,238.91798541313904
1558049829832,0.5450000166893005,9.567000389099121,-1.49399995803833,123.30166214257503
1558049829893,-0.4690000116825104,13.494000434875488,-0.7559999823570251,67.033921722228
1558049829953,-2.0490000247955322,14.288999557495117,4.510000228881836,277.2617863191877
1558049829960,,,,277.7845553378821
1558049830013,-2.010999917984009,6.550000190734863,4.539000034332275,253.36033845086098
1558049830025,,,,252.4467460078584
1558049830074,1.1770000457763672,10.218000411987305,-0.7749999761581421,155.02462600686098
1558049830135,0.0,7.010000228881836,1.8669999837875366,154.4853142699968
1558049830196,,,,257.25349163625486
1558049830197,-1.1009999513626099,7.210999965667725,0.6510000228881836,326.3378942039286
1558049830255,-1.225000023841858,8.092000007629395,-1.1200000047683716,325.26329712671594
1558049830313,-1.1200000047683716,8.484999656677246,-0.6320000290870667,56.52648506158005
1558049830373,-0.23899999260902405,11.454000473022461,-0.640999972820282,38.90425549348862
1558049830433,,,,76.58058640818155
1558049830435,1.034000039100647,,,
1558049830436,,14.42300033569336,-2.0299999713897705,127.98105206370744
1558049830492,,,,128.12399426265748
1558049830550,-4.251999855041504,9.26099967956543,6.693999767303467,249.80862642207597
1558049830553,,,,249.67773950701104
1558049830607,5.065999984741211,9.826000213623047,-3.0260000228881836,161.50430352904704
1558049830619,,,,161.94262408884342
1558049830665,-3.8399999141693115,10.027000427246094,2.872999906539917,296.42782988499874
1558049830724,,,,297.98268829860626
1558049830725,0.02800000086426735,5.918000221252441,0.29600000381469727,266.6610936707069
1558049830781,0.0860000029206276,,,267.1504084228467
1558049830782,,6.923999786376953,-0.11400000005960464,
1558049830839,0.03799999877810478,8.130000114440918,-0.7749999761581421,134.7292926240584
1558049830896,,,,105.72213491717454
1558049830898,-0.1720000058412552,10.956000328063965,-0.3440000116825104,72.67533695776751
1558049830953,,,,72.68686631708653
1558049830963,-0.5740000009536743,,-2.078000068664551,
1558049830964,,14.42300033569336,,91.256415802302
1558049831069,-2.1540000438690186,13.484000205993652,5.113999843597412,91.8205621069884
1558049831127,-0.4020000100135803,5.315000057220459,1.9819999933242798,274.2927713888748
1558049831185,0.9959999918937683,9.432999610900879,1.1970000267028809,265.51404536187334
1558049831244,-1.2920000553131104,,,231.07639549120915
1558049831245,,7.182000160217285,1.8769999742507935,
1558049831307,-1.378999948501587,7.440999984741211,0.3630000054836273,294.96973476136276
1558049831370,-1.2829999923706055,8.083000183105469,-0.24899999797344208,353.3497542981053
1558049831431,-1.6469999551773071,8.791000366210938,-0.7179999947547913,25.326761499041254
1558049831492,-1.187000036239624,13.168000221252441,-0.746999979019165,43.03651994134634
1558049831553,,,,47.73284873162038
1558049831557,0.6890000104904175,14.451000213623047,3.4860000610351562,255.64244808653478
1558049831614,,,,256.125274158963
1558049831623,-2.499000072479248,7.939000129699707,3.753999948501587,278.04292773380536
1558049831676,,,,278.643000833526
1558049831738,2.4030001163482666,10.1899995803833,-0.7369999885559082,175.74874500537865
1558049831800,-2.068000078201294,8.64799976348877,1.5800000429153442,175.71578251244418
1558049831807,,,,322.3875313540467
1558049831862,0.257999986410141,6.445000171661377,0.0860000029206276,208.94193805173222
1558049831874,,,,208.6675830131511
1558049831922,-0.257999986410141,7.086999893188477,0.3540000021457672,314.8242340747544
1558049831983,-0.04699999839067459,,,314.4300945936042
1558049831984,,8.628999710083008,-0.5070000290870667,
1558049832046,0.3440000116825104,11.95199966430664,-0.0860000029206276,98.63672889863511
1558049832108,0.5360000133514404,14.116000175476074,-2.565999984741211,176.1328202027868
1558049832169,-4.126999855041504,10.142000198364258,7.105999946594238,120.74509501548258
1558049832228,2.115999937057495,8.321999549865723,-0.06700000166893005,258.7533943478005
1558049832288,0.15299999713897705,9.25100040435791,1.9529999494552612,185.61833101737773
1558049832346,,,,261.79132588683876
1558049832406,0.15299999713897705,,,
1558049832407,,6.531000137329102,0.3440000116825104,251.24941384635514
1558049832465,-0.8040000200271606,,-0.45899999141693115,42.44204759674511
1558049832466,,7.823999881744385,,
1558049832467,,,,42.6478685171943
1558049832524,-1.2059999704360962,8.925000190734863,-0.5070000290870667,36.15664114512174
1558049832534,,,,36.5536151547775
1558049832583,-1.0429999828338623,9.395000457763672,-0.7080000042915344,48.651604797635514
1558049832644,-0.4690000116825104,12.324999809265137,-1.7039999961853027,48.89368377729369
1558049832703,0.9480000138282776,13.293000221252441,2.9110000133514404,91.29580550324545
1558049832761,-0.621999979019165,8.552000045776367,5.085000038146973,249.8207363474744
1558049832821,1.4739999771118164,11.185999870300293,-1.0429999828338623,256.1724844265061
1558049832882,-1.1200000047683716,7.795000076293945,1.9630000591278076,158.08806147226008
1558049832947,-0.02800000086426735,6.11899995803833,-0.41100001335144043,295.729326929149
1558049833009,,,,100.35401604089475
1558049833011,-0.05700000002980232,7.125,0.1340000033378601,302.89339623635954
1558049833072,,,,302.65530267208203
1558049833076,0.6320000290870667,8.581000328063965,-1.1299999952316284,134.8801578424456
1558049833137,,,,134.49143811640187
1558049833141,0.1809999942779541,12.53600025177002,0.3919999897480011,253.71462036310953
1558049833201,,,,253.45314706130307
1558049833207,-0.5170000195503235,15.486000061035156,-0.1340000033378601,25.14225930653896
1558049833265,,,,24.95313136842134
1558049833329,-4.577000141143799,8.437000274658203,7.288000106811523,259.1880334356342
1558049833390,3.562000036239624,8.619000434875488,-2.1740000247955322,162.27638811282526
1558049833395,,,,161.93221488054832
